timestamp,timestamp_sample,ref_timestamp,ref_lat,ref_lon,x,y,z,delta_xy[0],delta_xy[1],delta_z,vx,vy,vz,z_deriv,delta_vxy[0],delta_vxy[1],delta_vz,ax,ay,az,heading,delta_heading,ref_alt,dist_bottom,eph,epv,evh,evv,vxy_max,vz_max,hagl_min,hagl_max,xy_valid,z_valid,v_xy_valid,v_z_valid,xy_reset_counter,z_reset_counter,vxy_reset_counter,vz_reset_counter,heading_reset_counter,heading_good_for_control,xy_global,z_global,dist_bottom_valid,dist_bottom_sensor_bitfield,dead_reckoning
756807737,756805331,743568282,43.781802299999995,-79.4665002,-0.4771046,0.34753802,0.41623467,1.8680748,0.57801974,-0.03501063,-0.045190807,0.013973155,-0.0022023579,0.0089049935,0.008004123,0.010489854,0.037776098,0.12202136,0.10703053,0.23192066,1.4468553,-0.0051208483,191.30101,0.103796005,0.2579074,0.268847,0.12780577,0.098759815,inf,inf,inf,inf,1,1,1,1,4,5,2,2,2,0,1,1,0,0,0
756906117,756904521,743568282,43.781802299999995,-79.4665002,-0.48996323,0.3523819,0.41769478,1.8680748,0.57801974,-0.03501063,-0.04950875,0.014148302,-0.0032939948,0.00831599,0.008004123,0.010489854,0.037776098,-0.24347179,-0.24871361,-0.25379145,1.4468578,-0.0051208483,191.30101,0.10082355,0.26650342,0.274174,0.13208462,0.10062436,inf,inf,inf,inf,1,1,1,1,4,5,2,2,2,0,1,1,0,0,0
757006243,757003706,743568282,43.781802299999995,-79.4665002,-0.50486046,0.3590787,0.41840002,1.8680748,0.57801974,-0.03501063,-0.04993373,0.017331012,-0.0047691893,0.0067765024,0.008004123,0.010489854,0.037776098,-0.19087015,0.16789778,-0.13896754,1.4467748,-0.0051208483,191.30101,0.0999029,0.25721255,0.268565,0.12771088,0.09870291,inf,inf,inf,inf,1,1,1,1,4,5,2,2,2,0,1,1,0,0,0
757106011,757102912,743568282,43.781802299999995,-79.4665002,-0.51748556,0.36488757,0.41805074,1.8680748,0.57801974,-0.03501063,-0.050669886,0.016146896,-0.003793694,0.00660463,0.008004123,0.010489854,0.037776098,0.42189866,-0.109891996,-0.21645178,1.4467853,-0.0051208483,191.30101,0.09573868,0.2657996,0.27388123,0.13200095,0.10056589,inf,inf,inf,inf,1,1,1,1,4,5,2,2,2,0,1,1,0,0,0
757212836,757211112,743568282,43.781802299999995,-79.4665002,-0.5322013,0.37061897,0.41832772,1.8680748,0.57801974,-0.03501063,-0.05085404,0.016217094,-0.0018001181,0.008059013,0.008004123,0.010489854,0.037776098,0.26138622,0.029257212,0.47062233,1.4467721,-0.0051208483,191.30101,0.099001735,0.25725302,0.26887023,0.1279382,0.09882167,inf,inf,inf,inf,1,1,1,1,4,5,2,2,2,0,1,1,0,0,0
757303691,757301270,743568282,43.781802299999995,-79.4665002,-0.5429037,0.37449786,0.41767725,1.8680748,0.57801974,-0.03501063,-0.053953543,0.014032977,-0.006924356,0.0018442909,0.008004123,0.010489854,0.037776098,-0.014907016,-0.4497427,-0.6229165,1.4467686,-0.0051208483,191.30101,0.09607896,0.26506692,0.2735528,0.13183597,0.10048701,inf,inf,inf,inf,1,1,1,1,4,5,2,2,2,0,1,1,0,0,0
757411175,757409474,743568282,43.781802299999995,-79.4665002,-0.5571523,0.38050026,0.41678375,1.8680748,0.57801974,-0.03501063,-0.05369183,0.015410186,-0.0045665842,0.0026955758,0.008004123,0.010489854,0.037776098,-0.24011229,-0.5793046,-0.1003356,1.4467266,-0.0051208483,191.30101,0.09149212,0.25675464,0.26862192,0.12792055,0.098778516,inf,inf,inf,inf,1,1,1,1,4,5,2,2,2,0,1,1,0,0,0
757510117,757508663,743568282,43.781802299999995,-79.4665002,-0.56823224,0.38504323,0.4140757,1.8680748,0.57801974,-0.03501063,-0.05575629,0.016166305,-0.0043095606,-0.00025819015,0.008004123,0.010489854,0.037776098,-0.4828788,0.17440413,0.40875465,1.4469255,-0.0051208483,191.30101,0.092539996,0.26537356,0.27476785,0.13219291,0.100791655,inf,inf,inf,inf,1,1,1,1,4,5,2,2,2,0,1,1,0,0,0
757609644,757607850,743568282,43.781802299999995,-79.4665002,-0.5810278,0.3903934,0.41158366,1.8680748,0.57801974,-0.03501063,-0.061051466,0.018135784,-0.009291213,-0.007170046,0.008004123,0.010489854,0.037776098,0.013068974,0.0011010591,-0.87427205,1.4469968,-0.0051208483,191.30101,0.0960958,0.25636128,0.26916444,0.12783723,0.098862514,inf,inf,inf,inf,1,1,1,1,4,5,2,2,2,0,1,1,0,0,0
757708626,757707037,743568282,43.781802299999995,-79.4665002,-0.5919554,0.3941878,0.40997186,1.8680748,0.57801974,-0.03501063,-0.056181233,0.012350543,-0.00043324387,-7.109149e-05,0.008004123,0.010489854,0.037776098,1.9012052,0.7449206,-1.5080664,1.4472177,-0.0051208483,191.30101,0.09396008,0.2649794,0.27451134,0.132143,0.100732304,inf,inf,inf,inf,1,1,1,1,4,5,2,2,2,0,1,1,0,0,0
757807872,757806225,743568282,43.781802299999995,-79.4665002,-0.6021685,0.39770433,0.40758157,1.8680748,0.57801974,-0.03501063,-0.060625196,0.003849747,0.001567184,-0.0006326764,0.008004123,0.010489854,0.037776098,-1.3531843,-0.17594261,0.91258955,1.4470724,-0.0051208483,191.30101,0.09234512,0.25610143,0.2689624,0.12777089,0.098815165,inf,inf,inf,inf,1,1,1,1,4,5,2,2,2,0,1,1,0,0,0
757907000,757905413,743568282,43.781802299999995,-79.4665002,-0.6113783,0.40031728,0.40332738,1.8680748,0.57801974,-0.03501063,-0.064171985,0.0045717964,-0.006424914,-0.011700402,0.008004123,0.010489854,0.037776098,-2.2929075,-0.8141682,2.2560287,1.4470257,-0.0051208483,191.30101,0.09072843,0.26472,0.274295,0.13207428,0.10068153,inf,inf,inf,inf,1,1,1,1,4,5,2,2,2,0,1,1,0,0,0
758007448,758004602,743568282,43.781802299999995,-79.4665002,-0.62009656,0.40357283,0.39844805,1.8680748,0.57801974,-0.03501063,-0.059019487,0.017316656,-0.009918143,-0.018319046,0.008004123,0.010489854,0.037776098,1.1801735,0.28639814,0.15012833,1.4472314,-0.0051208483,191.30101,0.09454575,0.25590613,0.26875943,0.1277066,0.098753065,inf,inf,inf,inf,1,1,1,1,4,5,2,2,2,0,1,1,0,0,0
758106333,758103791,743568282,43.781802299999995,-79.4665002,-0.62779546,0.40694827,0.39260295,1.8680748,0.57801974,-0.03501063,-0.06697027,0.013202571,0.0054696207,-0.0067015267,0.008004123,0.010489854,0.037776098,-2.3810012,-1.1285839,4.125139,1.4473525,-0.0051208483,191.30101,0.10039085,0.26452506,0.27407607,0.13206251,0.100616276,inf,inf,inf,inf,1,1,1,1,4,5,2,2,2,0,1,1,0,0,0
758204615,758202977,743568282,43.781802299999995,-79.4665002,-0.63564944,0.41047534,0.38662258,1.8680748,0.57801974,-0.03501063,-0.06197415,0.008360208,-0.020569386,-0.03581537,0.008004123,0.010489854,0.037776098,-1.6538124,0.7850177,-0.836195,1.4496605,-0.0051208483,191.30101,0.106371224,0.25563136,0.26855287,0.12765081,0.0986931,inf,inf,inf,inf,1,1,1,1,4,5,2,2,2,0,1,1,0,0,0
758304575,758302165,743568282,43.781802299999995,-79.4665002,-0.64182675,0.4125484,0.37996256,1.8680748,0.57801974,-0.03501063,-0.048139725,-0.0010071058,-0.019576812,-0.037083738,0.008004123,0.010489854,0.037776098,-1.3599857,-0.8136959,3.0164428,1.4565521,-0.0051208483,191.30101,0.11303124,0.26424646,0.27385762,0.1320083,0.10055319,inf,inf,inf,inf,1,1,1,1,4,5,2,2,2,0,1,1,0,0,0
758412228,758410369,743568282,43.781802299999995,-79.4665002,-0.64891076,0.41559786,0.37457803,1.8680748,0.57801974,-0.03501063,-0.054884203,0.0034503776,-0.013513577,-0.03146711,0.008004123,0.010489854,0.037776098,-0.6692236,1.6937976,-2.0096433,1.4673097,-0.0051208483,191.30101,0.11841577,0.25608042,0.26895538,0.12790076,0.09882982,inf,inf,inf,inf,1,1,1,1,4,5,2,2,2,0,1,1,0,0,0
758511853,758509556,743568282,43.781802299999995,-79.4665002,-0.65479237,0.41787943,0.3699974,1.8680748,0.57801974,-0.03501063,-0.039859198,-0.0043554315,-0.045063842,-0.06382513,0.008004123,0.010489854,0.037776098,0.45784426,-0.93581045,-0.53691864,1.4760989,-0.0051208483,191.30101,0.12299639,0.26473704,0.27426454,0.13220224,0.100687765,inf,inf,inf,inf,1,1,1,1,4,5,2,2,2,0,1,1,0,0,0
758610545,758608746,743568282,43.781802299999995,-79.4665002,-0.6587459,0.4172188,0.3630535,1.8680748,0.57801974,-0.03501063,-0.020963121,-0.016232833,-0.039558403,-0.05856035,0.008004123,0.010489854,0.037776098,-1.2908442,-1.754215,3.773781,1.4772286,-0.0051208483,191.30101,0.1299403,0.25573793,0.2695306,0.1278575,0.09891482,inf,inf,inf,inf,1,1,1,1,4,5,2,2,2,0,1,1,0,0,0
758709605,758707932,743568282,43.781802299999995,-79.4665002,-0.6598811,0.41529876,0.3562149,1.8680748,0.57801974,-0.03501063,-0.0066433637,-0.023606887,-0.0746841,-0.09419281,0.008004123,0.010489854,0.037776098,-0.37189078,1.4461373,-3.613917,1.4687829,-0.0051208483,191.30101,0.13677889,0.26439252,0.27487615,0.13220562,0.10077949,inf,inf,inf,inf,1,1,1,1,4,5,2,2,2,0,1,1,0,0,0
758810058,758807121,743568282,43.781802299999995,-79.4665002,-0.661875,0.4115534,0.34621203,1.8680748,0.57801974,-0.03501063,0.022506488,-0.04474221,-0.07918808,-0.09887914,0.008004123,0.010489854,0.037776098,1.9067392,-1.0408529,0.61797583,1.4525099,-0.0051208483,191.30101,0.14678177,0.25540715,0.26933822,0.1279415,0.09885571,inf,inf,inf,inf,1,1,1,1,4,5,2,2,2,0,1,1,0,0,0
758908008,758906307,743568282,43.781802299999995,-79.4665002,-0.6584515,0.40425062,0.33929598,1.8680748,0.57801974,-0.03501063,0.093480855,-0.097635776,-0.023791732,-0.043710604,0.008004123,0.010489854,0.037776098,0.088336036,-1.0247462,1.200964,1.4477483,-0.0051208483,191.30101,0.15369782,0.264062,0.27467197,0.13215393,0.10071237,inf,inf,inf,inf,1,1,1,1,4,5,2,2,2,0,1,1,0,0,0
759007958,759005495,743568282,43.781802299999995,-79.4665002,-0.64847195,0.39181858,0.3291401,1.8680748,0.57801974,-0.03501063,0.18537982,-0.15576503,-0.1285076,-0.14813527,0.008004123,0.010489854,0.037776098,1.9730965,-2.0307567,1.0491018,1.4478279,-0.0051208483,191.30101,0.1638537,0.25505012,0.26916048,0.12779044,0.098787725,inf,inf,inf,inf,1,1,1,1,4,5,2,2,2,0,1,1,0,0,0
759106247,759104682,743568282,43.781802299999995,-79.4665002,-0.6295173,0.3736881,0.30990255,1.8680748,0.57801974,-0.03501063,0.2499941,-0.20742056,-0.23116882,-0.25009117,0.008004123,0.010489854,0.037776098,0.88456136,-1.306044,0.8932372,1.4494398,-0.0051208483,191.30101,0.18309125,0.26370168,0.27447408,0.13241017,0.10063197,inf,inf,inf,inf,1,1,1,1,4,5,2,2,2,0,1,1,0,0,0
759207374,759203871,743568282,43.781802299999995,-79.4665002,-0.61353266,0.35523698,0.27875972,1.8680748,0.57801974,-0.03501063,0.2820811,-0.22623569,-0.4063217,-0.42255837,0.008004123,0.010489854,0.037776098,-0.5400997,1.0250102,-3.6674693,1.4536375,-0.0051208483,191.30101,0.21423408,0.2547473,0.26898834,0.12842664,0.098722644,inf,inf,inf,inf,1,1,1,1,4,5,2,2,2,0,1,1,0,0,0
759304915,759303058,743568282,43.781802299999995,-79.4665002,-0.59320724,0.3349607,0.23381199,1.8680748,0.57801974,-0.03501063,0.31949303,-0.24402173,-0.52549875,-0.53906995,0.008004123,0.010489854,0.037776098,1.1239244,-0.4621067,0.84840715,1.4564888,-0.0051208483,191.30101,0.2591818,0.26343554,0.27429003,0.13341184,0.10057616,inf,inf,inf,inf,1,1,1,1,4,5,2,2,2,0,1,1,0,0,0
759404689,759402246,743568282,43.781802299999995,-79.4665002,-0.5731885,0.3136261,0.18551594,1.8680748,0.57801974,-0.03501063,0.31610042,-0.23220795,-0.58825856,-0.59295285,0.008004123,0.010489854,0.037776098,1.0649486,-0.20975822,0.6467944,1.4573692,-0.0051208483,191.30101,0.30747786,0.25451046,0.26962718,0.12928848,0.098824486,inf,inf,inf,inf,1,1,1,1,4,5,2,2,2,0,1,1,0,0,0
759512908,759510450,743568282,43.781802299999995,-79.4665002,-0.5490134,0.29014966,0.12371351,1.8680748,0.57801974,-0.03501063,0.29533455,-0.21780516,-0.68011487,-0.6772333,0.008004123,0.010489854,0.037776098,-0.7249242,1.2114494,-1.1559896,1.4586726,-0.0051208483,191.30101,0.36928028,0.2640532,0.2747664,0.1343475,0.10073638,inf,inf,inf,inf,1,1,1,1,4,5,2,2,2,0,1,1,0,0,0
759603043,759600621,743568282,43.781802299999995,-79.4665002,-0.53172386,0.26883724,0.06645387,1.8680748,0.57801974,-0.03501063,0.2783625,-0.20566542,-0.75641334,-0.74693096,0.008004123,0.010489854,0.037776098,-1.712076,1.8854154,-4.1573896,1.4583815,-0.0051208483,191.30101,0.42653993,0.2539783,0.26938424,0.12941527,0.09876419,inf,inf,inf,inf,1,1,1,1,4,5,2,2,2,0,1,1,0,0,0
759710745,759708825,743568282,43.781802299999995,-79.4665002,-0.51028347,0.24521907,-0.0085118655,1.8680748,0.57801974,-0.03501063,0.27264595,-0.1875654,-0.7594498,-0.74451613,0.008004123,0.010489854,0.037776098,-1.0685325,0.33641404,1.0059252,1.4584876,-0.0051208483,191.30101,0.5015057,0.26352477,0.2753498,0.13433671,0.10082944,inf,inf,inf,inf,1,1,1,1,4,5,2,2,2,0,1,1,0,0,0
759809824,759808013,743568282,43.781802299999995,-79.4665002,-0.49544078,0.22421628,-0.07874734,1.8680748,0.57801974,-0.03501063,0.25972262,-0.15107311,-0.8088363,-0.7879339,0.008004123,0.010489854,0.037776098,0.81284964,0.15068044,-0.624141,1.461002,-0.0051208483,191.30101,0.57174116,0.25422388,0.2697387,0.12972698,0.098903954,inf,inf,inf,inf,1,1,1,1,4,5,2,2,2,0,1,1,0,0,0
759909560,759907201,743568282,43.781802299999995,-79.4665002,-0.47986042,0.20727323,-0.15168329,1.8680748,0.57801974,-0.03501063,0.23143508,-0.1080447,-0.7966095,-0.7724894,0.008004123,0.010489854,0.037776098,-0.67567813,1.0426928,-1.8726494,1.4596127,-0.0051208483,191.30101,0.6446771,0.26298922,0.27506974,0.1340931,0.10077344,inf,inf,inf,inf,1,1,1,1,4,5,2,2,2,0,1,1,0,0,0
760008992,760006388,743568282,43.781802299999995,-79.4665002,-0.46132383,0.191358,-0.22092757,1.8680748,0.57801974,-0.03501063,0.23409793,-0.08416991,-0.765813,-0.73608196,0.008004123,0.010489854,0.037776098,-0.84956706,0.28533196,2.5830173,1.4603862,-0.0051208483,191.30101,0.71392137,0.2537326,0.26951522,0.1293883,0.09886092,inf,inf,inf,inf,1,1,1,1,4,5,2,2,2,0,1,1,0,0,0
760108494,760105575,743568282,43.781802299999995,-79.4665002,-0.4413227,0.18008344,-0.29136392,1.8680748,0.57801974,-0.03501063,0.22843972,-0.04276476,-0.7634954,-0.7309853,0.008004123,0.010489854,0.037776098,-1.054129,0.3176282,1.4418418,1.4590914,-0.0051208483,191.30101,0.7843577,0.2624776,0.27483147,0.1336816,0.100730956,inf,inf,inf,inf,1,1,1,1,4,5,2,2,2,0,1,1,0,0,0
760206465,760204763,743568282,43.781802299999995,-79.4665002,-0.41895485,0.1736194,-0.36097994,1.8680748,0.57801974,-0.03501063,0.21836363,-0.005045127,-0.7615407,-0.7260124,0.008004123,0.010489854,0.037776098,1.9714235,-0.54319006,3.8679285,1.4592714,-0.0051208483,191.30101,0.85397375,0.25330058,0.2693074,0.12902139,0.09882728,inf,inf,inf,inf,1,1,1,1,4,5,2,2,2,0,1,1,0,0,0
760306533,760303950,743568282,43.781802299999995,-79.4665002,-0.39756185,0.17151889,-0.43121067,1.8680748,0.57801974,-0.03501063,0.19327939,0.03566162,-0.7752081,-0.7391636,0.008004123,0.010489854,0.037776098,1.3107804,0.76035464,-3.582137,1.4610033,-0.0051208483,191.30101,0.92420447,0.26202768,0.27460918,0.13318612,0.10069305,inf,inf,inf,inf,1,1,1,1,4,5,2,2,2,0,1,1,0,0,0
760406299,760403145,743568282,43.781802299999995,-79.4665002,-0.37427554,0.17297743,-0.5025964,1.8680748,0.57801974,-0.03501063,0.18501349,0.06545173,-0.7579229,-0.7232453,0.008004123,0.010489854,0.037776098,1.160672,0.08271647,-1.2595152,1.4595524,-0.0051208483,191.30101,0.9955902,0.2528103,0.26908538,0.12855181,0.098789796,inf,inf,inf,inf,1,1,1,1,4,5,2,2,2,0,1,1,0,0,0
760505029,760502326,743568282,43.781802299999995,-79.4665002,-0.35269862,0.17807823,-0.5731068,1.8680748,0.57801974,-0.03501063,0.16338442,0.08983972,-0.7308321,-0.69840497,0.008004123,0.010489854,0.037776098,0.91909367,-0.7413988,-0.91133815,1.4570876,-0.0051208483,191.30101,1.0661006,0.2615172,0.27522045,0.13279141,0.1008104,inf,inf,inf,inf,1,1,1,1,4,5,2,2,2,0,1,1,0,0,0
760602998,760601512,743568282,43.781802299999995,-79.4665002,-0.33323592,0.18607047,-0.6435237,1.8680748,0.57801974,-0.03501063,0.14644746,0.12603252,-0.7077291,-0.6798313,0.008004123,0.010489854,0.037776098,0.7985526,0.5025274,-2.3500881,1.4563545,-0.0051208483,191.30101,1.1365175,0.2522916,0.2696489,0.12811464,0.098881334,inf,inf,inf,inf,1,1,1,1,4,5,2,2,2,0,1,1,0,0,0
760711358,760709716,743568282,43.781802299999995,-79.4665002,-0.3137042,0.19998586,-0.7208449,1.8680748,0.57801974,-0.03501063,0.13799848,0.1671579,-0.69491863,-0.6733858,0.008004123,0.010489854,0.037776098,0.76563877,-1.1777009,-1.1524956,1.4547572,-0.0051208483,191.30101,1.2138387,0.26178247,0.27561584,0.13272569,0.100956365,inf,inf,inf,inf,1,1,1,1,4,5,2,2,2,0,1,1,0,0,0
760810473,760808905,743568282,43.781802299999995,-79.4665002,-0.29786515,0.2153775,-0.79494995,1.8680748,0.57801974,-0.03501063,0.1162788,0.18152763,-0.6689248,-0.65626955,0.008004123,0.010489854,0.037776098,0.7656783,-0.98422974,0.6878886,1.4521235,-0.0051208483,191.30101,1.2879437,0.25261134,0.27009526,0.12819266,0.0990573,inf,inf,inf,inf,1,1,1,1,4,5,2,2,2,0,1,1,0,0,0
760910983,760908091,743568282,43.781802299999995,-79.4665002,-0.28530577,0.23215915,-0.8651222,1.8680748,0.57801974,-0.03501063,0.091154404,0.18322003,-0.5989553,-0.59477943,0.008004123,0.010489854,0.037776098,1.550648,-0.985592,4.5478888,1.4516866,-0.0051208483,191.30101,1.358116,0.26132017,0.27542955,0.13233225,0.100930884,inf,inf,inf,inf,1,1,1,1,4,5,2,2,2,0,1,1,0,0,0
761008937,761007280,743568282,43.781802299999995,-79.4665002,-0.27190903,0.25142127,-0.9301828,1.8680748,0.57801974,-0.03501063,0.06777213,0.19774988,-0.567599,-0.56947273,0.008004123,0.010489854,0.037776098,0.89775544,-0.96167904,4.511613,1.4527814,-0.0051208483,191.30101,1.4231766,0.25204536,0.269834,0.12759328,0.098986246,inf,inf,inf,inf,1,1,1,1,4,5,2,2,2,0,1,1,0,0,0
761108441,761106465,743568282,43.781802299999995,-79.4665002,-0.26080748,0.2729314,-0.98994035,1.8680748,0.57801974,-0.03501063,0.040068254,0.21871439,-0.51614785,-0.5225958,0.008004123,0.010489854,0.037776098,0.0348484,-0.0031172547,4.451972,1.4523851,-0.0051208483,191.30101,1.4829341,0.26071423,0.27515477,0.13179243,0.10085918,inf,inf,inf,inf,1,1,1,1,4,5,2,2,2,0,1,1,0,0,0
761208854,761205654,743568282,43.781802299999995,-79.4665002,-0.2524973,0.29609415,-1.0459492,1.8680748,0.57801974,-0.03501063,0.01111857,0.22414061,-0.46409857,-0.4758694,0.008004123,0.010489854,0.037776098,-0.77029103,0.11036161,1.5116972,1.4500959,-0.0051208483,191.30101,1.538943,0.25150526,0.26960596,0.12711872,0.09892795,inf,inf,inf,inf,1,1,1,1,4,5,2,2,2,0,1,1,0,0,0
761306710,761304841,743568282,43.781802299999995,-79.4665002,-0.2468617,0.31914553,-1.0965676,1.8680748,0.57801974,-0.03501063,-0.003144434,0.21957208,-0.42838165,-0.44434354,0.008004123,0.010489854,0.037776098,-0.35697973,-0.6072913,2.5548668,1.4487107,-0.0051208483,191.30101,1.5895615,0.26013768,0.27490637,0.13122715,0.10079343,inf,inf,inf,inf,1,1,1,1,4,5,2,2,2,0,1,1,0,0,0
761407092,761404027,743568282,43.781802299999995,-79.4665002,-0.24366835,0.34370875,-1.1455008,1.8680748,0.57801974,-0.03501063,-0.018894654,0.20596029,-0.38411465,-0.4053688,0.008004123,0.010489854,0.037776098,-0.13419019,-1.3021053,4.5154877,1.4505244,-0.0051208483,191.30101,1.6384946,0.2509463,0.269314,0.12666363,0.09885441,inf,inf,inf,inf,1,1,1,1,4,5,2,2,2,0,1,1,0,0,0
761506090,761503214,743568282,43.781802299999995,-79.4665002,-0.24352674,0.36735696,-1.1903799,1.8680748,0.57801974,-0.03501063,-0.05299366,0.19955452,-0.3821787,-0.40691414,0.008004123,0.010489854,0.037776098,0.43323073,-1.6034889,0.502321,1.3783062,-0.08506598,191.30101,1.6833737,0.25949138,0.2754473,0.12797417,0.10086878,inf,inf,inf,inf,1,1,1,1,4,5,2,2,3,0,1,1,0,0,0
761604208,761602414,743568282,43.781802299999995,-79.4665002,-0.24533515,0.3891247,-1.2346776,1.8680748,0.57801974,-0.03501063,-0.05285463,0.19875428,-0.35532588,-0.38517115,0.008004123,0.010489854,0.037776098,1.4068602,-2.5744731,1.6013775,1.4047157,-0.08506598,191.30101,1.7276714,0.25034145,0.26980045,0.121346265,0.09891973,inf,inf,inf,inf,1,1,1,1,4,5,2,2,3,0,1,1,0,0,0
761703909,761701600,743568282,43.781802299999995,-79.4665002,-0.24782032,0.4103092,-1.2766023,1.8680748,0.57801974,-0.03501063,-0.052456327,0.20178528,-0.33341783,-0.3679664,0.008004123,0.010489854,0.037776098,1.3323988,-1.2261392,1.9095832,1.4251457,-0.08506598,191.30101,1.7695961,0.25857574,0.27512348,0.12317221,0.100790724,inf,inf,inf,inf,1,1,1,1,4,5,2,2,3,0,1,1,0,0,0
761811403,761809792,743568282,43.781802299999995,-79.4665002,-0.2527593,0.43617,-1.3222865,1.8680748,0.57801974,-0.03501063,-0.07149044,0.20045614,-0.33388618,-0.37302813,0.008004123,0.010489854,0.037776098,-0.707077,1.8025047,-2.4569101,1.4403596,-0.08506598,191.30101,1.8152803,0.25028002,0.2701639,0.11815918,0.09905424,inf,inf,inf,inf,1,1,1,1,4,5,2,2,3,0,1,1,0,0,0
761911882,761908982,743568282,43.781802299999995,-79.4665002,-0.25944605,0.4583175,-1.3613629,1.8680748,0.57801974,-0.03501063,-0.090424284,0.17750528,-0.29431152,-0.3368578,0.008004123,0.010489854,0.037776098,-0.76841813,0.39906162,-2.4844646,1.4500496,-0.08506598,191.30101,1.8543568,0.2582714,0.27549136,0.120828934,0.10092288,inf,inf,inf,inf,1,1,1,1,4,5,2,2,3,0,1,1,0,0,0
762009938,762008166,743568282,43.781802299999995,-79.4665002,-0.26513073,0.4763686,-1.3910027,1.8680748,0.57801974,-0.03501063,-0.09296746,0.14769664,-0.2230332,-0.2666791,0.008004123,0.010489854,0.037776098,-0.2238683,-0.036177754,-3.7004802,1.4553859,-0.08506598,191.30101,1.8839965,0.2493213,0.26989448,0.116682924,0.09899371,inf,inf,inf,inf,1,1,1,1,4,5,2,2,3,0,1,1,0,0,0
762109221,762107354,743568282,43.781802299999995,-79.4665002,-0.27040297,0.4903604,-1.4129554,1.8680748,0.57801974,-0.03501063,-0.077948384,0.116872706,-0.16453339,-0.20743811,0.008004123,0.010489854,0.037776098,-0.42094874,0.99456996,-2.8741426,1.4563221,-0.08506598,191.30101,1.9059492,0.25709265,0.27521047,0.11995146,0.10086049,inf,inf,inf,inf,1,1,1,1,4,5,2,2,3,0,1,1,0,0,0
762207969,762206542,743568282,43.781802299999995,-79.4665002,-0.27809197,0.5029732,-1.4305477,1.8680748,0.57801974,-0.03501063,-0.06524777,0.06664401,-0.12710883,-0.16806257,0.008004123,0.010489854,0.037776098,0.24487953,-0.57328695,1.5533155,1.4556818,-0.08506598,191.30101,1.9235415,0.24833538,0.26963246,0.11668061,0.098938264,inf,inf,inf,inf,1,1,1,1,4,5,2,2,3,0,1,1,0,0,0
762308289,762305728,743568282,43.781802299999995,-79.4665002,-0.28604764,0.5117551,-1.4459046,1.8680748,0.57801974,-0.03501063,-0.066215426,0.034689106,-0.1300385,-0.16847375,0.008004123,0.010489854,0.037776098,1.3064767,-2.0462036,-0.07198171,1.4567692,-0.08506598,191.30101,1.9388984,0.25594708,0.2749336,0.12074084,0.10080256,inf,inf,inf,inf,1,1,1,1,4,5,2,2,3,0,1,1,0,0,0
762406772,762404920,743568282,43.781802299999995,-79.4665002,-0.2955474,0.51908773,-1.4601778,1.8680748,0.57801974,-0.03501063,-0.060708355,0.0046276217,-0.13735774,-0.1722673,0.008004123,0.010489854,0.037776098,-0.0049117464,-0.37629655,0.49046844,1.4592931,-0.08506598,191.30101,1.9531716,0.24722488,0.26933783,0.11808765,0.09886567,inf,inf,inf,inf,1,1,1,1,4,5,2,2,3,0,1,1,0,0,0
762507203,762504101,743568282,43.781802299999995,-79.4665002,-0.30397806,0.52354693,-1.475726,1.8680748,0.57801974,-0.03501063,-0.044365507,-0.017974673,-0.17062497,-0.20197092,0.008004123,0.010489854,0.037776098,1.609194,-1.6475667,0.62688255,1.4605157,-0.08506598,191.30101,1.9687198,0.2547348,0.27546862,0.12273662,0.100882195,inf,inf,inf,inf,1,1,1,1,4,5,2,2,3,1,1,1,0,0,0
762606075,762603288,743568282,43.781802299999995,-79.4665002,-0.31067646,0.5270167,-1.4899944,1.8680748,0.57801974,-0.03501063,-0.035623983,-0.032547154,-0.16731915,-0.1929668,0.008004123,0.010489854,0.037776098,-1.2884672,0.9468929,-0.6325077,1.4585534,-0.08506598,191.30101,1.9829882,0.24611811,0.26983184,0.12040643,0.09893857,inf,inf,inf,inf,1,1,1,1,4,5,2,2,3,1,1,1,0,0,0
762705333,762702485,743568282,43.781802299999995,-79.4665002,-0.31512564,0.5279098,-1.5049566,1.8680748,0.57801974,-0.03501063,-0.012947639,-0.05774725,-0.1592191,-0.18033716,0.008004123,0.010489854,0.037776098,0.058467768,-0.4702911,1.12636,1.4569836,-0.08506598,191.30101,1.9979504,0.253591,0.27515662,0.12540713,0.10081149,inf,inf,inf,inf,1,1,1,1,4,5,2,2,3,1,1,1,0,0,0
762813339,762810679,743568282,43.781802299999995,-79.4665002,-0.3192754,0.527421,-1.5178854,1.8680748,0.57801974,-0.03501063,0.0027208882,-0.071247496,-0.19203115,-0.20439006,0.008004123,0.010489854,0.037776098,1.6945283,-1.3660592,1.7042158,1.457202,-0.08506598,191.30101,2.0108793,0.24576847,0.27016816,0.123574585,0.09907215,inf,inf,inf,inf,1,1,1,1,4,5,2,2,3,1,1,1,0,0,0
762902741,762900849,743568282,43.781802299999995,-79.4665002,-0.3206276,0.5246658,-1.5311164,1.8680748,0.57801974,-0.03501063,0.01552881,-0.081997074,-0.19055468,-0.19726436,0.008004123,0.010489854,0.037776098,-1.0139102,0.321482,0.9983464,1.4569014,-0.08506598,191.30101,2.02411,0.25260228,0.27485198,0.12849021,0.1007452,inf,inf,inf,inf,1,1,1,1,4,5,2,2,3,1,1,1,0,0,0
763011666,763009053,743568282,43.781802299999995,-79.4665002,-0.32176957,0.521071,-1.5431916,1.8680748,0.57801974,-0.03501063,0.024718639,-0.08046418,-0.19791181,-0.19428799,0.008004123,0.010489854,0.037776098,-0.717263,1.2195604,0.31616625,1.4556683,-0.08506598,191.30101,2.0361853,0.2447747,0.26990083,0.12658045,0.099016406,inf,inf,inf,inf,1,1,1,1,4,5,2,2,3,1,1,1,0,0,0
763109879,763108240,743568282,43.781802299999995,-79.4665002,-0.32232532,0.5170155,-1.5548323,1.8680748,0.57801974,-0.03501063,0.01730707,-0.08440999,-0.1679152,-0.15784806,0.008004123,0.010489854,0.037776098,0.19642162,-1.1901429,1.7160069,1.4570352,-0.08506598,191.30101,2.047826,0.25239184,0.27521625,0.13205126,0.100882836,inf,inf,inf,inf,1,1,1,1,4,5,2,2,3,1,1,1,0,0,0
763208900,763207427,743568282,43.781802299999995,-79.4665002,-0.32517958,0.5143369,-1.5600883,1.8680748,0.57801974,-0.03501063,0.003693489,-0.06399531,-0.16435799,-0.1437272,0.008004123,0.010489854,0.037776098,1.2121993,-0.47029415,-0.478915,1.4581088,-0.08506598,191.30101,2.053082,0.24387583,0.2696508,0.12926021,0.09896236,inf,inf,inf,inf,1,1,1,1,4,5,2,2,3,1,1,1,0,0,0
763308091,763306614,743568282,43.781802299999995,-79.4665002,-0.32856062,0.5118211,-1.5647861,1.8680748,0.57801974,-0.03501063,-0.01923372,-0.053319447,-0.12844355,-0.100666314,0.008004123,0.010489854,0.037776098,-0.9968872,1.2805172,-0.7749214,1.456077,-0.08506598,191.30101,2.0577798,0.25160626,0.27495587,0.13468161,0.10082659,inf,inf,inf,inf,1,1,1,1,4,5,2,2,3,1,1,1,0,0,0
763408585,763405801,743568282,43.781802299999995,-79.4665002,-0.33473364,0.509209,-1.5654145,1.8680748,0.57801974,-0.03501063,-0.028571876,-0.05780219,-0.123594165,-0.08836419,0.008004123,0.010489854,0.037776098,-0.4517616,0.42689863,-0.5262168,1.454862,-0.08506598,191.30101,2.0584083,0.2431274,0.26938593,0.1316512,0.09890735,inf,inf,inf,inf,1,1,1,1,4,5,2,2,3,1,1,1,0,0,0
763506849,763504989,743568282,43.781802299999995,-79.4665002,-0.3408178,0.5046427,-1.5708561,1.8680748,0.57801974,-0.03501063,-0.031673577,-0.07336648,-0.16788648,-0.12828441,0.008004123,0.010489854,0.037776098,0.83641076,-0.65782213,-1.4218243,1.4547824,-0.08506598,191.30101,2.06385,0.25100014,0.27551958,0.1373451,0.10092273,inf,inf,inf,inf,1,1,1,1,4,5,2,2,3,1,1,1,0,0,0
763606967,763604176,743568282,43.781802299999995,-79.4665002,-0.34837553,0.4990785,-1.5743892,1.8680748,0.57801974,-0.03501063,-0.033870287,-0.084782034,-0.15449908,-0.10739736,0.008004123,0.010489854,0.037776098,-0.904366,0.7026769,-0.30001342,1.4534981,-0.08506598,191.30101,2.067383,0.24244712,0.2698461,0.13413908,0.09898556,inf,inf,inf,inf,1,1,1,1,4,5,2,2,3,1,1,1,0,0,0
763706857,763703365,743568282,43.781802299999995,-79.4665002,-0.3557082,0.49196348,-1.5808314,1.8680748,0.57801974,-0.03501063,-0.04576362,-0.08743289,-0.17721039,-0.12574816,0.008004123,0.010489854,0.037776098,-0.6427947,0.86281925,-1.6934783,1.4542742,-0.08506598,191.30101,2.0738251,0.25049162,0.27517486,0.13990161,0.1008565,inf,inf,inf,inf,1,1,1,1,4,5,2,2,3,1,1,1,0,0,0
763805395,763802548,743568282,43.781802299999995,-79.4665002,-0.3644397,0.4820951,-1.5853256,1.8680748,0.57801974,-0.03501063,-0.026899187,-0.12395515,-0.15964204,-0.10098523,0.008004123,0.010489854,0.037776098,1.1102526,-1.617294,2.9316816,1.4556247,-0.08506598,191.30101,2.0783193,0.24180402,0.26942298,0.13612561,0.098892026,inf,inf,inf,inf,1,1,1,1,4,5,2,2,3,1,1,1,0,0,0
763903417,763901734,743568282,43.781802299999995,-79.4665002,-0.37186116,0.46874887,-1.5914211,1.8680748,0.57801974,-0.03501063,-0.033193566,-0.14705229,-0.17740779,-0.114881,0.008004123,0.010489854,0.037776098,-0.6986905,0.5639113,-3.7573354,1.4531556,-0.08506598,191.30101,2.084415,0.2500174,0.27473584,0.14184724,0.10076123,inf,inf,inf,inf,1,1,1,1,4,5,2,2,3,1,1,1,0,0,0
764003244,764000921,743568282,43.781802299999995,-79.4665002,-0.37900943,0.45202243,-1.5948048,1.8680748,0.57801974,-0.03501063,-0.008646591,-0.193016,-0.18229532,-0.11320703,0.008004123,0.010489854,0.037776098,1.2137785,-0.50088376,1.820174,1.453814,-0.08506598,191.30101,2.0877986,0.24118005,0.2689854,0.13764621,0.09880378,inf,inf,inf,inf,1,1,1,1,4,5,2,2,3,1,1,1,0,0,0
764110615,764109127,743568282,43.781802299999995,-79.4665002,-0.38347057,0.43098882,-1.6048557,1.8680748,0.57801974,-0.03501063,0.015933067,-0.20592976,-0.23750822,-0.16445477,0.008004123,0.010489854,0.037776098,1.179129,-0.9895281,-0.97823346,1.4556106,-0.08506598,191.30101,2.0978494,0.25035253,0.2749242,0.14399694,0.10086743,inf,inf,inf,inf,1,1,1,1,4,5,2,2,3,1,1,1,0,0,0
764209992,764208311,743568282,43.781802299999995,-79.4665002,-0.38669392,0.41353455,-1.6144294,1.8680748,0.57801974,-0.03501063,0.028738873,-0.20077261,-0.24236391,-0.16335298,0.008004123,0.010489854,0.037776098,-0.59155804,1.1463584,-1.9744667,1.4547362,-0.08506598,191.30101,2.107423,0.24148227,0.26919118,0.13946229,0.098918855,inf,inf,inf,inf,1,1,1,1,4,5,2,2,3,1,1,1,0,0,0
764309407,764307498,743568282,43.781802299999995,-79.4665002,-0.38750485,0.3961955,-1.6263726,1.8680748,0.57801974,-0.03501063,0.049410533,-0.20302832,-0.21062604,-0.12953089,0.008004123,0.010489854,0.037776098,0.5643469,-0.37701795,2.7457314,1.4531469,-0.08506598,191.30101,2.1193664,0.250086,0.2744982,0.14511475,0.100782774,inf,inf,inf,inf,1,1,1,1,4,5,2,2,3,1,1,1,0,0,0
764408442,764406684,743568282,43.781802299999995,-79.4665002,-0.38916764,0.37860724,-1.6357937,1.8680748,0.57801974,-0.03501063,0.053991396,-0.17846902,-0.22423315,-0.1397806,0.008004123,0.010489854,0.037776098,1.5979508,-0.37143788,-1.258113,1.4532526,-0.08506598,191.30101,2.1287875,0.24131759,0.26882616,0.1400834,0.09884612,inf,inf,inf,inf,1,1,1,1,4,5,2,2,3,1,1,1,0,0,0
764507674,764505871,743568282,43.781802299999995,-79.4665002,-0.38775516,0.36189523,-1.6493526,1.8680748,0.57801974,-0.03501063,0.074608535,-0.16802186,-0.23539507,-0.15104501,0.008004123,0.010489854,0.037776098,-0.25339887,0.97912353,-1.4667748,1.4528208,-0.08506598,191.30101,2.1423464,0.2500642,0.2741195,0.14547747,0.100707754,inf,inf,inf,inf,1,1,1,1,4,5,2,2,3,1,1,1,0,0,0
764606876,764605058,743568282,43.781802299999995,-79.4665002,-0.38817748,0.34831682,-1.6619303,1.8680748,0.57801974,-0.03501063,0.08534673,-0.15565915,-0.23904273,-0.15240705,0.008004123,0.010489854,0.037776098,1.3492844,-0.93480724,2.4140658,1.4513599,-0.08506598,191.30101,2.1549242,0.24132632,0.2692842,0.14050266,0.09892337,inf,inf,inf,inf,1,1,1,1,4,5,2,2,3,1,1,1,0,0,0
764707045,764704247,743568282,43.781802299999995,-79.4665002,-0.38684204,0.33551243,-1.6771647,1.8680748,0.57801974,-0.03501063,0.08657058,-0.14213146,-0.23874228,-0.15353936,0.008004123,0.010489854,0.037776098,1.340995,-0.5408771,0.11874933,1.4495546,-0.08506598,191.30101,2.1701584,0.25020626,0.27461597,0.14575826,0.1007948,inf,inf,inf,inf,1,1,1,1,4,5,2,2,3,1,1,1,0,0,0
764807541,764803451,743568282,43.781802299999995,-79.4665002,-0.3809257,0.3235197,-1.6893313,1.8680748,0.57801974,-0.03501063,0.092158355,-0.12804507,-0.21680832,-0.13164563,0.008004123,0.010489854,0.037776098,-0.39474106,1.0410185,-3.601905,1.4497594,-0.08506598,191.30101,2.1823251,0.24121636,0.26888826,0.14032316,0.09885085,inf,inf,inf,inf,1,1,1,1,4,5,2,2,3,1,1,1,0,0,0
764913280,764911635,743568282,43.781802299999995,-79.4665002,-0.37121353,0.31090835,-1.7051167,1.8680748,0.57801974,-0.03501063,0.1134517,-0.11919238,-0.21708553,-0.13515854,0.008004123,0.010489854,0.037776098,0.5407752,-0.4001801,-1.6096802,1.451126,-0.08506598,191.30101,2.1981106,0.25104585,0.27485257,0.14602847,0.10091796,inf,inf,inf,inf,1,1,1,1,4,5,2,2,3,1,1,1,0,0,0
765003390,765001804,743568282,43.781802299999995,-79.4665002,-0.36268964,0.3003053,-1.7174646,1.8680748,0.57801974,-0.03501063,0.13379873,-0.119245835,-0.18489328,-0.10478704,0.008004123,0.010489854,0.037776098,0.22642976,-0.42080995,2.6330547,1.4500219,-0.08506598,191.30101,2.2104583,0.2411002,0.26847887,0.14000088,0.0987622,inf,inf,inf,inf,1,1,1,1,4,5,2,2,3,1,1,1,0,0,0
765111661,765110009,743568282,43.781802299999995,-79.4665002,-0.35099867,0.2880158,-1.732116,1.8680748,0.57801974,-0.03501063,0.12582047,-0.11671376,-0.16162147,-0.08542829,0.008004123,0.010489854,0.037776098,-0.72988445,0.8630853,1.4038208,1.4463885,-0.08506598,191.30101,2.2251098,0.2510084,0.27442375,0.1455805,0.100825004,inf,inf,inf,inf,1,1,1,1,4,5,2,2,3,1,1,1,0,0,0
765203089,765200179,743568282,43.781802299999995,-79.4665002,-0.3450265,0.27550647,-1.7410557,1.8680748,0.57801974,-0.03501063,0.115007944,-0.10092609,-0.16388057,-0.08930541,0.008004123,0.010489854,0.037776098,-0.58030605,1.4258733,-1.1791584,1.448557,-0.08506598,191.30101,2.2340496,0.24113227,0.2681289,0.13929233,0.09868805,inf,inf,inf,inf,1,1,1,1,4,5,2,2,3,1,1,1,0,0,0
765310097,765308382,743568282,43.781802299999995,-79.4665002,-0.337383,0.26165274,-1.753802,1.8680748,0.57801974,-0.03501063,0.10872111,-0.082904205,-0.15439215,-0.08466275,0.008004123,0.010489854,0.037776098,-0.009961734,0.88533384,-2.743179,1.4500464,-0.08506598,191.30101,2.2467957,0.25109908,0.274063,0.14478712,0.10074809,inf,inf,inf,inf,1,1,1,1,4,5,2,2,3,1,1,1,0,0,0
765409818,765407567,743568282,43.781802299999995,-79.4665002,-0.32897958,0.25150746,-1.7625005,1.8680748,0.57801974,-0.03501063,0.1100579,-0.075927466,-0.12789758,-0.060053144,0.008004123,0.010489854,0.037776098,-1.2878767,0.7719476,0.81932443,1.4500972,-0.08506598,191.30101,2.2554944,0.24200279,0.2684383,0.13906948,0.09881748,inf,inf,inf,inf,1,1,1,1,4,5,2,2,3,1,1,1,0,0,0
765508690,765506753,743568282,43.781802299999995,-79.4665002,-0.32023162,0.2433447,-1.7712988,1.8680748,0.57801974,-0.03501063,0.11050217,-0.06812163,-0.09437316,-0.03009557,0.008004123,0.010489854,0.037776098,0.64622515,-1.2025542,2.807555,1.44874,-0.08506598,191.30101,2.2642925,0.25120735,0.27374277,0.14408116,0.10067882,inf,inf,inf,inf,1,1,1,1,4,5,2,2,3,1,1,1,0,0,0
765607388,765605940,743568282,43.781802299999995,-79.4665002,-0.3104593,0.23507117,-1.7728673,1.8680748,0.57801974,-0.03501063,0.08824112,-0.047307935,-0.09428046,-0.02996267,0.008004123,0.010489854,0.037776098,-1.1447691,1.4188247,-3.6659858,1.4477458,-0.08506598,191.30101,2.265861,0.24208169,0.26898384,0.13811526,0.09890664,inf,inf,inf,inf,1,1,1,1,4,5,2,2,3,1,1,1,0,0,0
765708191,765705128,743568282,43.781802299999995,-79.4665002,-0.30047753,0.22785193,-1.7742945,1.8680748,0.57801974,-0.03501063,0.10177139,-0.04963085,-0.05182366,0.011204734,0.008004123,0.010489854,0.037776098,0.63337666,-0.5972302,2.677595,1.448055,-0.08506598,191.30101,2.2672882,0.25130278,0.27432334,0.14295402,0.10077759,inf,inf,inf,inf,1,1,1,1,4,5,2,2,3,1,1,1,0,0,0
765807191,765804313,743568282,43.781802299999995,-79.4665002,-0.29181844,0.22206382,-1.7754214,1.8680748,0.57801974,-0.03501063,0.09865417,-0.029837415,-0.061551917,0.00015335012,0.008004123,0.010489854,0.037776098,0.03376179,0.7037098,0.4917929,1.4499878,-0.08506598,191.30101,2.2684152,0.24194218,0.26870665,0.13705732,0.09883279,inf,inf,inf,inf,1,1,1,1,4,5,2,2,3,1,1,1,0,0,0
765905101,765903499,743568282,43.781802299999995,-79.4665002,-0.28235856,0.21827537,-1.779442,1.8680748,0.57801974,-0.03501063,0.10231875,-0.0068224506,-0.08565959,-0.027270881,0.008004123,0.010489854,0.037776098,-0.11002042,0.90930045,-1.705117,1.4508133,-0.08506598,191.30101,2.2724357,0.25115874,0.27403536,0.14192158,0.10070122,inf,inf,inf,inf,1,1,1,1,4,5,2,2,3,1,1,1,0,0,0
766004602,766002689,743568282,43.781802299999995,-79.4665002,-0.27702656,0.21278754,-1.7804255,1.8680748,0.57801974,-0.03501063,0.12261555,-0.00588951,-0.06748765,-0.009060134,0.008004123,0.010489854,0.037776098,1.5148548,-0.83413863,1.6403521,1.4496043,-0.08506598,191.30101,2.2734194,0.24186282,0.26846403,0.13620938,0.098767936,inf,inf,inf,inf,1,1,1,1,4,5,2,2,3,1,1,1,0,0,0
766113342,766110893,743568282,43.781802299999995,-79.4665002,-0.27196506,0.20727812,-1.7840656,1.8680748,0.57801974,-0.03501063,0.09921756,0.0064029237,-0.13103901,-0.07314737,0.008004123,0.010489854,0.037776098,0.24623364,-0.051032607,-3.4925385,1.4495368,-0.08506598,191.30101,2.2770593,0.2519374,0.27442023,0.14139242,0.10082934,inf,inf,inf,inf,1,1,1,1,4,5,2,2,3,1,1,1,0,0,0
766203826,766201058,743568282,43.781802299999995,-79.4665002,-0.26847386,0.2031708,-1.7877101,1.8680748,0.57801974,-0.03501063,0.09410416,0.008370501,-0.14851342,-0.08799585,0.008004123,0.010489854,0.037776098,0.77197325,-1.3460401,0.785181,1.4505475,-0.08506598,191.30101,2.2807038,0.24187633,0.2682527,0.1354412,0.09870997,inf,inf,inf,inf,1,1,1,1,4,5,2,2,3,1,1,1,0,0,0
766311046,766309261,743568282,43.781802299999995,-79.4665002,-0.2637956,0.19959846,-1.7968374,1.8680748,0.57801974,-0.03501063,0.083322644,0.004860111,-0.16360076,-0.10272086,0.008004123,0.010489854,0.037776098,0.4655751,-0.8910533,0.42503947,1.4502822,-0.08506598,191.30101,2.2898312,0.25194484,0.27419442,0.14060842,0.10076725,inf,inf,inf,inf,1,1,1,1,4,5,2,2,3,1,1,1,0,0,0
766410987,766408450,743568282,43.781802299999995,-79.4665002,-0.25922996,0.1959582,-1.8026958,1.8680748,0.57801974,-0.03501063,0.06966252,-0.0002546947,-0.16101448,-0.09618048,0.008004123,0.010489854,0.037776098,-1.3959092,1.272702,-0.2332817,1.4494698,-0.08506598,191.30101,2.2956896,0.24269514,0.2686611,0.13493599,0.09884801,inf,inf,inf,inf,1,1,1,1,4,5,2,2,3,1,1,1,0,0,0
766509951,766507634,743568282,43.781802299999995,-79.4665002,-0.25407434,0.19268234,-1.8104438,1.8680748,0.57801974,-0.03501063,0.08073727,-0.015664775,-0.13974756,-0.0735062,0.008004123,0.010489854,0.037776098,0.5990745,-1.6660328,3.3597124,1.4485496,-0.08506598,191.30101,2.3034375,0.25193197,0.27397186,0.13956784,0.100707,inf,inf,inf,inf,1,1,1,1,4,5,2,2,3,1,1,1,0,0,0
766608682,766606820,743568282,43.781802299999995,-79.4665002,-0.2465677,0.18888386,-1.8156931,1.8680748,0.57801974,-0.03501063,0.07915732,-0.012212266,-0.16823463,-0.098118104,0.008004123,0.010489854,0.037776098,1.2193714,-1.7714734,1.1495274,1.4470979,-0.08506598,191.30101,2.308687,0.24256034,0.26922873,0.13395758,0.09893171,inf,inf,inf,inf,1,1,1,1,4,5,2,2,3,1,1,1,0,0,0
766707483,766706008,743568282,43.781802299999995,-79.4665002,-0.23823635,0.1852722,-1.8246411,1.8680748,0.57801974,-0.03501063,0.06634133,-0.0128280725,-0.19149555,-0.12117283,0.008004123,0.010489854,0.037776098,-0.80315673,0.66804427,-3.9723454,1.4455577,-0.08506598,191.30101,2.3176348,0.25176233,0.27457345,0.13841397,0.10079963,inf,inf,inf,inf,1,1,1,1,4,5,2,2,3,1,1,1,0,0,0
766806895,766805192,743568282,43.781802299999995,-79.4665002,-0.23129746,0.18214077,-1.833896,1.8680748,0.57801974,-0.03501063,0.07120166,-0.025660893,-0.15918931,-0.0885603,0.008004123,0.010489854,0.037776098,-0.46952274,-0.5185563,2.1576893,1.4472141,-0.08506598,191.30101,2.3268898,0.24238895,0.2690373,0.13300186,0.09888106,inf,inf,inf,inf,1,1,1,1,4,5,2,2,3,1,1,1,0,0,0
766906059,766904378,743568282,43.781802299999995,-79.4665002,-0.22508988,0.17944679,-1.8456099,1.8680748,0.57801974,-0.03501063,0.06974095,-0.023696862,-0.14254828,-0.0748329,0.008004123,0.010489854,0.037776098,0.04415703,-0.7593778,3.0718892,1.4490927,-0.08506598,191.30101,2.3386037,0.2515526,0.27437234,0.13748026,0.10074608,inf,inf,inf,inf,1,1,1,1,4,5,2,2,3,1,1,1,0,0,0
767006298,767003564,743568282,43.781802299999995,-79.4665002,-0.21407337,0.1756129,-1.8634968,1.8680748,0.57801974,-0.03501063,0.08463605,-0.047008958,-0.4068371,-0.33994365,0.008004123,0.010489854,0.037776098,0.3425171,-0.7183777,-3.184215,1.4494596,-0.08506598,191.30101,2.3564906,0.2422179,0.26889312,0.13201109,0.09883818,inf,inf,inf,inf,1,1,1,1,4,5,2,2,3,1,1,1,0,0,0
767104476,767102751,743568282,43.781802299999995,-79.4665002,-0.19834091,0.168563,-1.9188071,1.8680748,0.57801974,-0.03501063,0.15056717,-0.09406341,-0.79191256,-0.7281066,0.008004123,0.010489854,0.037776098,1.1460962,-1.0424842,-4.4215593,1.4481093,-0.08506598,191.30101,2.4118009,0.25135216,0.27421856,0.13731965,0.10070088,inf,inf,inf,inf,1,1,1,1,4,5,2,2,3,1,1,1,0,0,0
767212570,767210954,743568282,43.781802299999995,-79.4665002,-0.17484984,0.15550765,-2.0111923,1.8680748,0.57801974,-0.03501063,0.20284028,-0.15267757,-1.2375088,-1.1634524,0.008004123,0.010489854,0.037776098,0.7252692,-0.4879453,-3.7792294,1.4498101,-0.08506598,191.30101,2.5041862,0.24299648,0.26944485,0.13364959,0.09900327,inf,inf,inf,inf,1,1,1,1,4,5,2,2,3,1,1,1,0,0,0
767304207,767301123,743568282,43.781802299999995,-79.4665002,-0.15319364,0.1408983,-2.1271024,1.8680748,0.57801974,-0.03501063,0.2099691,-0.17447132,-1.6121223,-1.5327979,0.008004123,0.010489854,0.037776098,-1.1334566,0.15117069,-4.98627,1.4519442,-0.08506598,191.30101,2.6200962,0.2513882,0.2741309,0.13890465,0.10066477,inf,inf,inf,inf,1,1,1,1,4,5,2,2,3,1,1,1,0,0,0
767411147,767409326,743568282,43.781802299999995,-79.4665002,-0.1307584,0.120944425,-2.2958808,1.8680748,0.57801974,-0.03501063,0.21202508,-0.17371128,-2.0620193,-1.9621952,0.008004123,0.010489854,0.037776098,0.3941256,-0.23018102,-3.593555,1.4527858,-0.08506598,191.30101,2.7888746,0.24291621,0.26933149,0.13506028,0.09894914,inf,inf,inf,inf,1,1,1,1,4,5,2,2,3,1,1,1,0,0,0
767510876,767508512,743568282,43.781802299999995,-79.4665002,-0.11244514,0.10449218,-2.4967878,1.8680748,0.57801974,-0.03501063,0.18472552,-0.14292717,-2.4674966,-2.3553462,0.008004123,0.010489854,0.037776098,0.28753814,0.6276343,-4.911577,1.4543078,-0.08506598,191.30101,2.9897816,0.25223607,0.27464864,0.14093487,0.10080361,inf,inf,inf,inf,1,1,1,1,4,5,2,2,3,1,1,1,0,0,0
767609193,767607698,743568282,43.781802299999995,-79.4665002,-0.09396823,0.09194289,-2.7216442,1.8680748,0.57801974,-0.03501063,0.17086434,-0.109451815,-2.8322303,-2.6944213,0.008004123,0.010489854,0.037776098,0.09150318,-0.266152,-3.305266,1.4564909,-0.08506598,191.30101,3.214638,0.24271487,0.26993966,0.1363063,0.09902316,inf,inf,inf,inf,1,1,1,1,4,5,2,2,3,1,1,1,0,0,0
767708741,767706883,743568282,43.781802299999995,-79.4665002,-0.07677003,0.083137296,-2.990394,1.8680748,0.57801974,-0.03501063,0.15183063,-0.06439569,-3.1981144,-3.045751,0.008004123,0.010489854,0.037776098,-0.7986209,0.5352939,-3.3925064,1.4575739,-0.08506598,191.30101,3.483388,0.25208294,0.27529272,0.14209117,0.100887045,inf,inf,inf,inf,1,1,1,1,4,5,2,2,3,1,1,1,0,0,0
767807671,767806069,743568282,43.781802299999995,-79.4665002,-0.05947562,0.07802786,-3.283329,1.8680748,0.57801974,-0.03501063,0.14318223,-0.041221213,-3.5483193,-3.3711464,0.008004123,0.010489854,0.037776098,-0.46542475,0.11156655,-3.2523916,1.4579028,-0.08506598,191.30101,3.7763228,0.24234155,0.2696647,0.13710059,0.098926336,inf,inf,inf,inf,1,1,1,1,4,5,2,2,3,1,1,1,0,0,0
767906816,767905255,743568282,43.781802299999995,-79.4665002,-0.04401813,0.07650132,-3.613907,1.8680748,0.57801974,-0.03501063,0.12462312,-0.0037652287,-3.867971,-3.6744537,0.008004123,0.010489854,0.037776098,0.5038391,0.24955118,-3.4529264,1.457402,-0.08506598,191.30101,4.1069007,0.25172812,0.27499977,0.14283483,0.10078665,inf,inf,inf,inf,1,1,1,1,4,5,2,2,3,1,1,1,0,0,0
768007554,768004442,743568282,43.781802299999995,-79.4665002,-0.02746991,0.07828758,-3.9674969,1.8680748,0.57801974,-0.03501063,0.09743637,0.034252472,-4.171509,-3.954667,0.008004123,0.010489854,0.037776098,-0.91430044,0.7285819,-3.066897,1.458184,-0.08506598,191.30101,4.4604907,0.24208543,0.26940465,0.13757074,0.09883788,inf,inf,inf,inf,1,1,1,1,4,5,2,2,3,1,1,1,0,0,0
768106455,768103631,743568282,43.781802299999995,-79.4665002,-0.013938815,0.082182415,-4.3535786,1.8680748,0.57801974,-0.03501063,0.059258897,0.037218254,-4.368987,-4.138428,0.008004123,0.010489854,0.037776098,-1.4950429,0.28587994,-0.824195,1.4561584,-0.08506598,191.30101,4.8465724,0.25148046,0.2747261,0.1431453,0.100695685,inf,inf,inf,inf,1,1,1,1,4,5,2,2,3,1,1,1,0,0,0
768213499,768211834,743568282,43.781802299999995,-79.4665002,-0.0005422259,0.08569668,-4.7840543,1.8680748,0.57801974,-0.03501063,0.032991394,0.03174155,-4.4586496,-4.210026,0.008004123,0.010489854,0.037776098,-0.34815893,0.1909561,-1.8576113,1.453372,-0.08506598,191.30101,5.277048,0.24261461,0.269759,0.13781518,0.09894837,inf,inf,inf,inf,1,1,1,1,4,5,2,2,3,1,1,1,0,0,0
768303873,768301999,743568282,43.781802299999995,-79.4665002,0.0072170245,0.0883268,-5.156028,1.8680748,0.57801974,-0.03501063,0.0024162587,0.027593138,-4.49625,-4.241484,0.008004123,0.010489854,0.037776098,-0.76057917,-0.14632559,1.230719,1.4501971,-0.08506598,191.30101,5.6490216,0.25114802,0.27444097,0.142074,0.100607924,inf,inf,inf,inf,1,1,1,1,4,5,2,2,3,1,1,1,0,0,0
768411795,768410202,743568282,43.781802299999995,-79.4665002,0.016051412,0.09064952,-5.6049614,1.8680748,0.57801974,-0.03501063,-0.032341544,0.015459443,-4.40685,-4.1495085,0.008004123,0.010489854,0.037776098,-0.13817748,-0.57670003,2.4530578,1.4490583,-0.08506598,191.30101,6.097955,0.24225678,0.26949602,0.1363019,0.098870724,inf,inf,inf,inf,1,1,1,1,4,5,2,2,3,1,1,1,0,0,0
768511321,768509397,743568282,43.781802299999995,-79.4665002,0.019811582,0.09082337,-6.008653,1.8680748,0.57801974,-0.03501063,-0.05116938,-0.014065876,-4.175366,-3.9236405,0.008004123,0.010489854,0.037776098,1.2649621,-1.8461308,6.156171,1.4471873,-0.08506598,191.30101,6.501647,0.25158465,0.27480373,0.1403481,0.10072377,inf,inf,inf,inf,1,1,1,1,4,5,2,2,3,1,1,1,0,0,0
768611319,768608573,743568282,43.781802299999995,-79.4665002,0.023292549,0.09005812,-6.3958874,1.8680748,0.57801974,-0.03501063,-0.058172338,-0.04008842,-3.8787332,-3.6420228,0.008004123,0.010489854,0.037776098,-1.0782219,0.2117496,3.4769967,1.4456578,-0.08506598,191.30101,6.888881,0.24181065,0.2692101,0.133418,0.09879444,inf,inf,inf,inf,1,1,1,1,4,5,2,2,3,1,1,1,0,0,0
768709219,768707760,743568282,43.781802299999995,-79.4665002,0.025428178,0.08686476,-6.758233,1.8680748,0.57801974,-0.03501063,-0.045357164,-0.06497152,-3.5546243,-3.3359933,0.008004123,0.010489854,0.037776098,-0.44079807,-1.1081884,6.9269695,1.4461647,-0.08506598,191.30101,7.251227,0.25098273,0.27535027,0.13673,0.100801975,inf,inf,inf,inf,1,1,1,1,4,5,2,2,3,1,1,1,0,0,0
768808598,768806945,743568282,43.781802299999995,-79.4665002,0.026309539,0.08427371,-7.1015162,1.8680748,0.57801974,-0.03501063,-0.052417845,-0.086742796,-3.1874566,-3.0014293,0.008004123,0.010489854,0.037776098,-1.6672022,1.1129698,3.4136114,1.4442308,-0.08506598,191.30101,7.59451,0.2412574,0.26967958,0.13004251,0.09885988,inf,inf,inf,inf,1,1,1,1,4,5,2,2,3,1,1,1,0,0,0
768909119,768906130,743568282,43.781802299999995,-79.4665002,0.025301935,0.079645246,-7.411865,1.8680748,0.57801974,-0.03501063,-0.05581088,-0.08382984,-2.8549001,-2.6985815,0.008004123,0.010489854,0.037776098,-0.19014217,1.2116742,-1.0371909,1.4424388,-0.08506598,191.30101,7.904859,0.2502464,0.27500698,0.13301675,0.10072142,inf,inf,inf,inf,1,1,1,1,4,5,2,2,3,1,1,1,0,0,0
769007042,769005316,743568282,43.781802299999995,-79.4665002,0.02408831,0.07570483,-7.70731,1.8680748,0.57801974,-0.03501063,-0.059683632,-0.10667036,-2.5619383,-2.4489224,0.008004123,0.010489854,0.037776098,0.23536438,0.627531,1.4269557,1.4403943,-0.08506598,191.30101,8.200304,0.24044958,0.26924804,0.12667027,0.09875281,inf,inf,inf,inf,1,1,1,1,4,5,2,2,3,1,1,1,0,0,0
769106835,769104504,743568282,43.781802299999995,-79.4665002,0.021688674,0.068018526,-7.9729285,1.8680748,0.57801974,-0.03501063,-0.05950596,-0.1531908,-2.2715576,-2.1960495,0.008004123,0.010489854,0.037776098,1.0707699,-1.2802054,2.440474,1.4420161,-0.08506598,191.30101,8.465922,0.2492554,0.27456143,0.12985311,0.10061355,inf,inf,inf,inf,1,1,1,1,4,5,2,2,3,1,1,1,0,0,0
769206641,769203690,743568282,43.781802299999995,-79.4665002,0.01754451,0.055471838,-8.21819,1.8680748,0.57801974,-0.03501063,-0.07055563,-0.18222764,-1.9790782,-1.9446886,0.008004123,0.010489854,0.037776098,-1.0449886,0.24669632,5.989431,1.444456,-0.08506598,191.30101,8.711184,0.24167696,0.26880497,0.12449715,0.098603345,inf,inf,inf,inf,1,1,1,1,4,5,2,2,3,1,1,1,0,0,0
769306104,769302874,743568282,43.781802299999995,-79.4665002,0.012644191,0.0425402,-8.446646,1.8680748,0.57801974,-0.03501063,-0.072780274,-0.15990235,-1.7682675,-1.7755382,0.008004123,0.010489854,0.037776098,-0.2639104,1.4871142,-1.0194315,1.4432373,-0.08506598,191.30101,8.939639,0.250379,0.27409995,0.12785795,0.10046226,inf,inf,inf,inf,1,1,1,1,4,5,2,2,3,1,1,1,0,0,0
769404342,769402059,743568282,43.781802299999995,-79.4665002,0.0066804206,0.031225368,-8.659703,1.8680748,0.57801974,-0.03501063,-0.07172556,-0.13494952,-1.5710788,-1.6229795,0.008004123,0.010489854,0.037776098,1.119252,0.6441244,0.74377555,1.4412434,-0.08506598,191.30101,9.152697,0.2427397,0.2684808,0.12296694,0.09853375,inf,inf,inf,inf,1,1,1,1,4,5,2,2,3,1,1,1,0,0,0
769513128,769510262,743568282,43.781802299999995,-79.4665002,-0.0010939435,0.019131264,-8.8611965,1.8680748,0.57801974,-0.03501063,-0.08243668,-0.14895923,-1.3319584,-1.4189172,0.008004123,0.010489854,0.037776098,-0.3262814,-0.9526941,6.9176645,1.4378388,-0.08506598,191.30101,9.35419,0.25217485,0.2743964,0.12665582,0.100581735,inf,inf,inf,inf,1,1,1,1,4,5,2,2,3,1,1,1,0,0,0
769611203,769609447,743568282,43.781802299999995,-79.4665002,-0.008564534,0.007817825,-9.037507,1.8680748,0.57801974,-0.03501063,-0.0820357,-0.1452254,-1.1733719,-1.2975634,0.008004123,0.010489854,0.037776098,0.31879625,-0.8088972,8.4320965,1.4364223,-0.08506598,191.30101,9.5305,0.24421981,0.2687605,0.12218904,0.09865866,inf,inf,inf,inf,1,1,1,1,4,5,2,2,3,1,1,1,0,0,0
769710459,769708633,743568282,43.781802299999995,-79.4665002,-0.017444577,-0.004540064,-9.187659,1.8680748,0.57801974,-0.03501063,-0.10564064,-0.15547588,-1.0262631,-1.1745429,0.008004123,0.010489854,0.037776098,-0.9564394,-0.7881902,4.877139,1.4384127,-0.08506598,191.30101,9.680653,0.2528215,0.2748859,0.12563427,0.100667566,inf,inf,inf,inf,1,1,1,1,4,5,2,2,3,1,1,1,0,0,0
769809306,769807819,743568282,43.781802299999995,-79.4665002,-0.025804034,-0.01478116,-9.328457,1.8680748,0.57801974,-0.03501063,-0.111972995,-0.122463785,-0.8780414,-1.0524741,0.008004123,0.010489854,0.037776098,0.8590825,1.0401895,1.2703382,1.4417672,-0.08506598,191.30101,9.82145,0.24474302,0.26920027,0.1214008,0.09873579,inf,inf,inf,inf,1,1,1,1,4,5,2,2,3,1,1,1,0,0,0
769910289,769907005,743568282,43.781802299999995,-79.4665002,-0.034457225,-0.023108354,-9.444245,1.8680748,0.57801974,-0.03501063,-0.10134264,-0.10511316,-0.69287056,-0.8823957,0.008004123,0.010489854,0.037776098,-0.14345275,-0.4518265,7.0930605,1.4425611,-0.08506598,191.30101,9.937239,0.25328547,0.27452224,0.12487183,0.1005996,inf,inf,inf,inf,1,1,1,1,4,5,2,2,3,1,1,1,0,0,0
770007899,770006190,743568282,43.781802299999995,-79.4665002,-0.04131349,-0.030701837,-9.548002,1.8680748,0.57801974,-0.03501063,-0.08728093,-0.079054765,-0.5681616,-0.77441484,0.008004123,0.010489854,0.037776098,1.5294716,0.8520659,0.84578645,1.4395735,-0.08506598,191.30101,10.040996,0.24510585,0.26885566,0.12071169,0.098672196,inf,inf,inf,inf,1,1,1,1,4,5,2,2,3,1,1,1,0,0,0
770106975,770105376,743568282,43.781802299999995,-79.4665002,-0.047104195,-0.038926054,-9.627626,1.8680748,0.57801974,-0.03501063,-0.074196845,-0.08851844,-0.4366433,-0.6495105,0.008004123,0.010489854,0.037776098,-0.34750044,1.0538666,-3.5377624,1.4387476,-0.08506598,191.30101,10.12062,0.2535888,0.2741638,0.124154806,0.10053475,inf,inf,inf,inf,1,1,1,1,4,5,2,2,3,1,1,1,0,0,0
770207898,770204562,743568282,43.781802299999995,-79.4665002,-0.0507497,-0.051006213,-9.698823,1.8680748,0.57801974,-0.03501063,-0.04830258,-0.11201525,-0.31412575,-0.53555524,0.008004123,0.010489854,0.037776098,-0.63158405,0.70165825,2.8643126,1.4385782,-0.08506598,191.30101,10.191816,0.24522479,0.26851222,0.12014202,0.09861664,inf,inf,inf,inf,1,1,1,1,4,5,2,2,3,1,1,1,0,0,0
770306566,770303748,743568282,43.781802299999995,-79.4665002,-0.05308171,-0.06397146,-9.756974,1.8680748,0.57801974,-0.03501063,-0.0335019,-0.112689026,-0.28234115,-0.50448704,0.008004123,0.010489854,0.037776098,0.7707038,-0.23914528,0.9573782,1.437746,-0.08506598,191.30101,10.249968,0.25365564,0.27381083,0.12403013,0.10047812,inf,inf,inf,inf,1,1,1,1,4,5,2,2,3,1,1,1,0,0,0
770406125,770402933,743568282,43.781802299999995,-79.4665002,-0.056759547,-0.075871244,-9.806745,1.8680748,0.57801974,-0.03501063,-0.045428433,-0.11451614,-0.22688603,-0.44706532,0.008004123,0.010489854,0.037776098,-1.6937026,2.153364,-2.719476,1.441562,-0.08506598,191.30101,10.299738,0.2452484,0.2681332,0.12017577,0.098542035,inf,inf,inf,inf,1,1,1,1,4,5,2,2,3,1,1,1,0,0,0
770512861,770511136,743568282,43.781802299999995,-79.4665002,-0.061620805,-0.088709004,-9.847722,1.8680748,0.57801974,-0.03501063,-0.04639748,-0.10640871,-0.16844279,-0.3806639,0.008004123,0.010489854,0.037776098,-0.46755674,2.0882018,-3.0001764,1.4437101,-0.08506598,191.30101,10.340715,0.2544356,0.27405638,0.12442588,0.10059887,inf,inf,inf,inf,1,1,1,1,4,5,2,2,3,1,1,1,0,0,0
770603775,770601306,743568282,43.781802299999995,-79.4665002,-0.0619924,-0.099138975,-9.871223,1.8680748,0.57801974,-0.03501063,-0.045949567,-0.10212879,-0.12208023,-0.32282475,0.008004123,0.010489854,0.037776098,0.6106696,1.3428286,-1.6934203,1.4458442,-0.08506598,191.30101,10.364217,0.24508817,0.26853245,0.12034156,0.09860973,inf,inf,inf,inf,1,1,1,1,4,5,2,2,3,1,1,1,0,0,0
770711171,770709509,743568282,43.781802299999995,-79.4665002,-0.06265659,-0.1103083,-9.890712,1.8680748,0.57801974,-0.03501063,-0.046734944,-0.084207825,-0.07677605,-0.26217934,0.008004123,0.010489854,0.037776098,-0.010643433,1.7729495,-3.232916,1.4497449,-0.08506598,191.30101,10.383705,0.25424618,0.27449346,0.124766566,0.10067553,inf,inf,inf,inf,1,1,1,1,4,5,2,2,3,1,1,1,0,0,0
770810457,770808692,743568282,43.781802299999995,-79.4665002,-0.06387037,-0.11845277,-9.899761,1.8680748,0.57801974,-0.03501063,-0.034355342,-0.07544594,-0.047542125,-0.21464409,0.008004123,0.010489854,0.037776098,1.1689414,-2.1554523,2.6432312,1.4526422,-0.08506598,191.30101,10.392755,0.24555753,0.26874644,0.120970115,0.09873312,inf,inf,inf,inf,1,1,1,1,4,5,2,2,3,1,1,1,0,0,0
770911235,770907880,743568282,43.781802299999995,-79.4665002,-0.06605565,-0.124196276,-9.904872,1.8680748,0.57801974,-0.03501063,-0.047651026,-0.046971083,-0.012060738,-0.16131032,0.008004123,0.010489854,0.037776098,-1.6582115,-0.020122178,1.9276197,1.4538841,-0.08506598,191.30101,10.397865,0.25395772,0.27407676,0.1251864,0.10060056,inf,inf,inf,inf,1,1,1,1,4,5,2,2,3,1,1,1,0,0,0
771008907,771007063,743568282,43.781802299999995,-79.4665002,-0.06816722,-0.12750478,-9.902872,1.8680748,0.57801974,-0.03501063,-0.05772707,-0.007208349,-0.036220323,-0.16390045,0.008004123,0.010489854,0.037776098,-1.2820235,1.878101,-1.2039704,1.4541179,-0.08506598,191.30101,10.395865,0.24515311,0.2683416,0.12155396,0.098661765,inf,inf,inf,inf,1,1,1,1,4,5,2,2,3,1,1,1,0,0,0
771108739,771106249,743568282,43.781802299999995,-79.4665002,-0.07170189,-0.12802064,-9.903136,1.8680748,0.57801974,-0.03501063,-0.067049086,0.019631179,-0.04874961,-0.15873289,0.008004123,0.010489854,0.037776098,-1.8324537,2.193639,-2.832311,1.4552054,-0.08506598,191.30101,10.39613,0.2535479,0.2736547,0.12588423,0.10052606,inf,inf,inf,inf,1,1,1,1,4,5,2,2,3,1,1,1,0,0,0
771207919,771205436,743568282,43.781802299999995,-79.4665002,-0.073299594,-0.1255149,-9.897346,1.8680748,0.57801974,-0.03501063,-0.059557036,0.046689715,-0.045806427,-0.13390534,0.008004123,0.010489854,0.037776098,-0.64314544,1.942628,-3.1167994,1.455805,-0.08506598,191.30101,10.390339,0.24464841,0.26789108,0.122196175,0.09856962,inf,inf,inf,inf,1,1,1,1,4,5,2,2,3,1,1,1,0,0,0
771307313,771304620,743568282,43.781802299999995,-79.4665002,-0.07498181,-0.11992476,-9.892841,1.8680748,0.57801974,-0.03501063,-0.054707535,0.08171349,-0.051507667,-0.12140552,0.008004123,0.010489854,0.037776098,0.6748763,1.171229,-1.9966217,1.4561332,-0.08506598,191.30101,10.385835,0.25304326,0.27319294,0.12658526,0.10043228,inf,inf,inf,inf,1,1,1,1,4,5,2,2,3,1,1,1,0,0,0
771406702,771403809,743568282,43.781802299999995,-79.4665002,-0.07474851,-0.112767115,-9.882272,1.8680748,0.57801974,-0.03501063,-0.05498329,0.11242219,-0.061448894,-0.10914354,0.008004123,0.010489854,0.037776098,-0.8970358,1.3821675,-3.3790605,1.4549468,-0.08506598,191.30101,10.375265,0.24417908,0.2674522,0.12279258,0.098484226,inf,inf,inf,inf,1,1,1,1,4,5,2,2,3,1,1,1,0,0,0
771506152,771502991,743568282,43.781802299999995,-79.4665002,-0.07477841,-0.10204182,-9.875385,1.8680748,0.57801974,-0.03501063,-0.04696414,0.14987764,-0.0748901,-0.10553999,0.008004123,0.010489854,0.037776098,0.26401514,0.42818865,-2.59553,1.4527081,-0.08506598,191.30101,10.368379,0.25258088,0.2727437,0.12727898,0.10034481,inf,inf,inf,inf,1,1,1,1,4,5,2,2,3,1,1,1,0,0,0
771604127,771602188,743568282,43.781802299999995,-79.4665002,-0.072708696,-0.0886706,-9.864837,1.8680748,0.57801974,-0.03501063,-0.044769574,0.18173297,-0.08669166,-0.097729854,0.008004123,0.010489854,0.037776098,0.046826974,1.0734338,-3.7288232,1.450786,-0.08506598,191.30101,10.35783,0.24374458,0.2677958,0.123559825,0.09854269,inf,inf,inf,inf,1,1,1,1,4,5,2,2,3,1,1,1,0,0,0
771712071,771710379,743568282,43.781802299999995,-79.4665002,-0.07144634,-0.0712325,-9.860478,1.8680748,0.57801974,-0.03501063,-0.034542546,0.19109643,-0.09170529,-0.08868611,0.008004123,0.010489854,0.037776098,2.0560398,-1.7332503,2.7631729,1.4509736,-0.08506598,191.30101,10.353472,0.25295305,0.2737608,0.12852088,0.10060919,inf,inf,inf,inf,1,1,1,1,4,5,2,2,3,1,1,1,0,0,0
771811174,771809564,743568282,43.781802299999995,-79.4665002,-0.06804077,-0.053839557,-9.851807,1.8680748,0.57801974,-0.03501063,-0.039671905,0.20173578,-0.1271178,-0.10687878,0.008004123,0.010489854,0.037776098,0.53692234,0.017225161,-1.9476724,1.4506509,-0.08506598,191.30101,10.3448,0.24409646,0.2680055,0.12466838,0.09866626,inf,inf,inf,inf,1,1,1,1,4,5,2,2,3,1,1,1,0,0,0
771910574,771908769,743568282,43.781802299999995,-79.4665002,-0.06561836,-0.03577943,-9.849014,1.8680748,0.57801974,-0.03501063,-0.033892937,0.2010723,-0.1333904,-0.10150357,0.008004123,0.010489854,0.037776098,-0.17800598,0.5982238,-1.9429493,1.4505308,-0.08506598,191.30101,10.342008,0.25258505,0.2733418,0.12924613,0.10053705,inf,inf,inf,inf,1,1,1,1,4,5,2,2,3,1,1,1,0,0,0
772009601,772007935,743568282,43.781802299999995,-79.4665002,-0.061428715,-0.017063996,-9.841395,1.8680748,0.57801974,-0.03501063,-0.029219665,0.19753703,-0.13923188,-0.091715224,0.008004123,0.010489854,0.037776098,-0.075228885,0.13856462,-2.8358004,1.450739,-0.08506598,191.30101,10.334389,0.2437416,0.26762167,0.1254204,0.098602906,inf,inf,inf,inf,1,1,1,1,4,5,2,2,3,1,1,1,0,0,0
772108946,772107123,743568282,43.781802299999995,-79.4665002,-0.058203377,0.0009475211,-9.839996,1.8680748,0.57801974,-0.03501063,-0.016005203,0.1806097,-0.13163646,-0.07611088,0.008004123,0.010489854,0.037776098,1.640485,-1.6055639,1.630273,1.4512992,-0.08506598,191.30101,10.33299,0.25225723,0.27294582,0.12994654,0.100470684,inf,inf,inf,inf,1,1,1,1,4,5,2,2,3,1,1,1,0,0,0
772208073,772206306,743568282,43.781802299999995,-79.4665002,-0.054333426,0.019177537,-9.834063,1.8680748,0.57801974,-0.03501063,-0.004769418,0.1630896,-0.14189248,-0.07459292,0.008004123,0.010489854,0.037776098,1.3649839,-1.2207602,0.35403007,1.4505525,-0.08506598,191.30101,10.327056,0.24346246,0.2672617,0.12593551,0.09854563,inf,inf,inf,inf,1,1,1,1,4,5,2,2,3,1,1,1,0,0,0
772307093,772305491,743568282,43.781802299999995,-79.4665002,-0.051009525,0.03511931,-9.833195,1.8680748,0.57801974,-0.03501063,0.001277582,0.12488238,-0.12583798,-0.052460656,0.008004123,0.010489854,0.037776098,-0.040162243,-1.7468021,3.2427893,1.4499853,-0.08506598,191.30101,10.326188,0.25200555,0.2725742,0.1304307,0.10041133,inf,inf,inf,inf,1,1,1,1,4,5,2,2,3,1,1,1,0,0,0
772407449,772404677,743568282,43.781802299999995,-79.4665002,-0.04672361,0.04825171,-9.828133,1.8680748,0.57801974,-0.03501063,-0.0043101558,0.08860065,-0.14961146,-0.066069245,0.008004123,0.010489854,0.037776098,-1.4453833,-0.117254555,-1.5325152,1.4494469,-0.08506598,191.30101,10.321126,0.24320178,0.26692,0.12647563,0.09849321,inf,inf,inf,inf,1,1,1,1,4,5,2,2,3,1,1,1,0,0,0
772507222,772503863,743568282,43.781802299999995,-79.4665002,-0.04371235,0.05644188,-9.82707,1.8680748,0.57801974,-0.03501063,-0.012115887,0.044286113,-0.12401695,-0.03528698,0.008004123,0.010489854,0.037776098,-1.3689299,0.33318692,-1.3805301,1.4487973,-0.08506598,191.30101,10.320064,0.25177336,0.27222487,0.13107385,0.10035929,inf,inf,inf,inf,1,1,1,1,4,5,2,2,3,1,1,1,0,0,0
772605996,772603048,743568282,43.781802299999995,-79.4665002,-0.04169406,0.061656695,-9.821687,1.8680748,0.57801974,-0.03501063,-0.02194018,0.011903096,-0.12655087,-0.030134792,0.008004123,0.010489854,0.037776098,0.049212817,1.2027167,-2.638767,1.4518842,-0.08506598,191.30101,10.31468,0.24279608,0.26726437,0.12682208,0.09855431,inf,inf,inf,inf,1,1,1,1,4,5,2,2,3,1,1,1,0,0,0
772704839,772702234,743568282,43.781802299999995,-79.4665002,-0.04140325,0.063893974,-9.818923,1.8680748,0.57801974,-0.03501063,-0.029770857,-0.012697529,-0.12815498,-0.028472215,0.008004123,0.010489854,0.037776098,0.23707844,0.34945047,-3.5268576,1.4540098,-0.08506598,191.30101,10.311916,0.25138125,0.27260295,0.13128251,0.10043124,inf,inf,inf,inf,1,1,1,1,4,5,2,2,3,1,1,1,0,0,0
772812040,772810435,743568282,43.781802299999995,-79.4665002,-0.04168291,0.06439034,-9.809408,1.8680748,0.57801974,-0.03501063,-0.028361645,-0.04300145,-0.08345278,0.024593867,0.008004123,0.010489854,0.037776098,-0.028456507,-0.7889165,3.820288,1.4552689,-0.08506598,191.30101,10.302402,0.24318014,0.26742926,0.12737788,0.0986713,inf,inf,inf,inf,1,1,1,1,4,5,2,2,3,1,1,1,0,0,0
772902416,772900612,743568282,43.781802299999995,-79.4665002,-0.043080032,0.06322502,-9.8044615,1.8680748,0.57801974,-0.03501063,-0.041706238,-0.039872926,-0.12766808,-0.016562073,0.008004123,0.010489854,0.037776098,0.29216468,-0.24093458,-1.7268012,1.4558244,-0.08506598,191.30101,10.297455,0.25101992,0.2721394,0.13147572,0.10035069,inf,inf,inf,inf,1,1,1,1,4,5,2,2,3,1,1,1,0,0,0
773010389,773008806,743568282,43.781802299999995,-79.4665002,-0.046163693,0.061198656,-9.798437,1.8680748,0.57801974,-0.03501063,-0.034468606,-0.04893716,-0.1419014,-0.02407502,0.008004123,0.010489854,0.037776098,1.2240665,-1.9780182,3.1302047,1.4527947,-0.08506598,191.30101,10.29143,0.24266024,0.26694688,0.12767738,0.09857059,inf,inf,inf,inf,1,1,1,1,4,5,2,2,3,1,1,1,0,0,0
773109827,773107993,743568282,43.781802299999995,-79.4665002,-0.050092764,0.058304865,-9.797975,1.8680748,0.57801974,-0.03501063,-0.045568038,-0.05151881,-0.16020784,-0.04032776,0.008004123,0.010489854,0.037776098,1.0619817,-0.6443505,1.2208991,1.4516088,-0.08506598,191.30101,10.290968,0.2513219,0.2722854,0.13228849,0.100444384,inf,inf,inf,inf,1,1,1,1,4,5,2,2,3,1,1,1,0,0,0
773208814,773207177,743568282,43.781802299999995,-79.4665002,-0.054839984,0.055974524,-9.793137,1.8680748,0.57801974,-0.03501063,-0.036197647,-0.047139097,-0.13919868,-0.013264987,0.008004123,0.010489854,0.037776098,0.9451034,-1.7646806,3.7028997,1.4508125,-0.08506598,191.30101,10.28613,0.2422787,0.26655525,0.12796824,0.09851126,inf,inf,inf,inf,1,1,1,1,4,5,2,2,3,1,1,1,0,0,0
773308275,773306364,743568282,43.781802299999995,-79.4665002,-0.059338484,0.054306667,-9.794317,1.8680748,0.57801974,-0.03501063,-0.034842297,-0.02887743,-0.17262585,-0.04673858,0.008004123,0.010489854,0.037776098,1.1534705,-0.7789722,0.70414853,1.452246,-0.08506598,191.30101,10.287311,0.25096175,0.27187848,0.13251989,0.10037743,inf,inf,inf,inf,1,1,1,1,4,5,2,2,3,1,1,1,0,0,0
773408542,773405547,743568282,43.781802299999995,-79.4665002,-0.063572094,0.0541341,-9.795702,1.8680748,0.57801974,-0.03501063,-0.017276568,-0.009485036,-0.17433256,-0.046225384,0.008004123,0.010489854,0.037776098,1.4945865,-1.7461677,3.3060882,1.4524074,-0.08506598,191.30101,10.288695,0.24184129,0.26609105,0.12810929,0.098418586,inf,inf,inf,inf,1,1,1,1,4,5,2,2,3,1,1,1,0,0,0
773508150,773504735,743568282,43.781802299999995,-79.4665002,-0.06671592,0.05576433,-9.80217,1.8680748,0.57801974,-0.03501063,-0.0050917924,0.012480313,-0.18202962,-0.05639639,0.008004123,0.010489854,0.037776098,1.9630638,-0.96883565,1.5406796,1.449335,-0.08506598,191.30101,10.295163,0.2505394,0.2714044,0.13270363,0.10028263,inf,inf,inf,inf,1,1,1,1,4,5,2,2,3,1,1,1,0,0,0
773606915,773603919,743568282,43.781802299999995,-79.4665002,-0.069027245,0.057665262,-9.805355,1.8680748,0.57801974,-0.03501063,-0.00041288856,0.028679455,-0.16909853,-0.042429447,0.008004123,0.010489854,0.037776098,0.57416016,-0.28467605,2.8857322,1.4461297,-0.08506598,191.30101,10.298348,0.24139753,0.26629728,0.12820935,0.09844921,inf,inf,inf,inf,1,1,1,1,4,5,2,2,3,1,1,1,0,0,0
773704862,773703103,743568282,43.781802299999995,-79.4665002,-0.070938684,0.059961706,-9.812208,1.8680748,0.57801974,-0.03501063,-0.0037624508,0.030206108,-0.1947474,-0.07100101,0.008004123,0.010489854,0.037776098,1.2482649,-1.3415945,-0.6378243,1.4456984,-0.08506598,191.30101,10.305202,0.25010437,0.27164748,0.13272592,0.100326434,inf,inf,inf,inf,1,1,1,1,4,5,2,2,3,1,1,1,0,0,0
773813065,773811307,743568282,43.781802299999995,-79.4665002,-0.07224485,0.061762184,-9.8387375,1.8680748,0.57801974,-0.03501063,0.02189597,0.00519375,-0.58634084,-0.46412805,0.008004123,0.010489854,0.037776098,0.51745826,-0.8649889,-4.494497,1.4477284,-0.08506598,191.30101,10.331731,0.2417587,0.26640216,0.12880191,0.09855604,inf,inf,inf,inf,1,1,1,1,4,5,2,2,3,1,1,1,0,0,0
773903139,773901477,743568282,43.781802299999995,-79.4665002,-0.07028185,0.061131034,-9.902756,1.8680748,0.57801974,-0.03501063,0.05653062,-0.014881158,-0.9972559,-0.87969923,0.008004123,0.010489854,0.037776098,0.84734964,-0.073972136,-4.1654296,1.4489219,-0.08506598,191.30101,10.395749,0.24973601,0.27112153,0.13439578,0.10023759,inf,inf,inf,inf,1,1,1,1,4,5,2,2,3,1,1,1,0,0,0
774012050,774009675,743568282,43.781802299999995,-79.4665002,-0.06601105,0.054683063,-10.011882,1.8680748,0.57801974,-0.03501063,0.08653236,-0.046950802,-1.4553891,-1.3278112,0.008004123,0.010489854,0.037776098,-0.18368013,-0.3213221,-3.9126813,1.4484475,-0.08506598,191.30101,10.504875,0.24136955,0.26586807,0.13194253,0.09847121,inf,inf,inf,inf,1,1,1,1,4,5,2,2,3,1,1,1,0,0,0
774110497,774108860,743568282,43.781802299999995,-79.4665002,-0.05900728,0.046478245,-10.15777,1.8680748,0.57801974,-0.03501063,0.11147191,-0.0651281,-1.8595932,-1.7271463,0.008004123,0.010489854,0.037776098,0.6076234,-0.3592785,-3.141036,1.4485307,-0.08506598,191.30101,10.6507635,0.2503287,0.2712175,0.13835745,0.100350074,inf,inf,inf,inf,1,1,1,1,4,5,2,2,3,1,1,1,0,0,0
774209515,774208046,743568282,43.781802299999995,-79.4665002,-0.050519355,0.041005034,-10.324545,1.8680748,0.57801974,-0.03501063,0.1170164,-0.06869567,-2.262411,-2.1064396,0.008004123,0.010489854,0.037776098,-0.092905365,-0.08627493,-3.4604979,1.450423,-0.08506598,191.30101,10.817538,0.24110247,0.26536158,0.1347529,0.09839708,inf,inf,inf,inf,1,1,1,1,4,5,2,2,3,1,1,1,0,0,0
774308888,774307230,743568282,43.781802299999995,-79.4665002,-0.041718237,0.035715394,-10.534988,1.8680748,0.57801974,-0.03501063,0.102165826,-0.059917636,-2.6232283,-2.4528294,0.008004123,0.010489854,0.037776098,-0.9313443,0.45894632,-3.6299088,1.453765,-0.08506598,191.30101,11.027982,0.2502062,0.27069977,0.14112261,0.10027252,inf,inf,inf,inf,1,1,1,1,4,5,2,2,3,1,1,1,0,0,0
774408115,774406417,743568282,43.781802299999995,-79.4665002,-0.032349117,0.02520802,-10.762229,1.8680748,0.57801974,-0.03501063,0.09340279,-0.045032486,-2.9511375,-2.7503603,0.008004123,0.010489854,0.037776098,0.35730568,-0.5458504,-3.759693,1.456041,-0.08506598,191.30101,11.255222,0.2408704,0.26485255,0.13681613,0.09830293,inf,inf,inf,inf,1,1,1,1,4,5,2,2,3,1,1,1,0,0,0
774508785,774505601,743568282,43.781802299999995,-79.4665002,-0.023762267,0.016812082,-11.026515,1.8680748,0.57801974,-0.03501063,0.077774435,0.00080291845,-3.27207,-3.0501473,0.008004123,0.010489854,0.037776098,0.28524178,0.6092766,-3.550456,1.4560143,-0.08506598,191.30101,11.519508,0.25008407,0.27017787,0.14290188,0.100172065,inf,inf,inf,inf,1,1,1,1,4,5,2,2,3,1,1,1,0,0,0
774606772,774604792,743568282,43.781802299999995,-79.4665002,-0.01605357,0.009253441,-11.306821,1.8680748,0.57801974,-0.03501063,0.06376454,0.049157456,-3.5800922,-3.3239985,0.008004123,0.010489854,0.037776098,0.8071864,-0.41102627,-3.8328838,1.454855,-0.08506598,191.30101,11.799814,0.24070293,0.26433668,0.13813272,0.09820533,inf,inf,inf,inf,1,1,1,1,4,5,2,2,3,1,1,1,0,0,0
774706831,774703849,743568282,43.781802299999995,-79.4665002,-0.0098939575,0.007713963,-11.624176,1.8680748,0.57801974,-0.03501063,0.045257807,0.10612102,-3.8562386,-3.5790992,0.008004123,0.010489854,0.037776098,-0.011338924,0.630988,-3.494599,1.4533467,-0.08506598,191.30101,12.117169,0.2500031,0.2704539,0.14412272,0.10021844,inf,inf,inf,inf,1,1,1,1,4,5,2,2,3,1,1,1,0,0,0
774806372,774803156,743568282,43.781802299999995,-79.4665002,-0.0031263619,0.013887668,-11.964845,1.8680748,0.57801974,-0.03501063,0.03398284,0.15436377,-4.1330733,-3.8317947,0.008004123,0.010489854,0.037776098,-0.14266415,0.3319744,-3.1160204,1.4524449,-0.08506598,191.30101,12.457838,0.24061781,0.2646271,0.13898002,0.09825511,inf,inf,inf,inf,1,1,1,1,4,5,2,2,3,1,1,1,0,0,0
774904735,774902341,743568282,43.781802299999995,-79.4665002,0.002358863,0.026190788,-12.3394375,1.8680748,0.57801974,-0.03501063,0.018608842,0.19163619,-4.3485384,-4.035407,0.008004123,0.010489854,0.037776098,0.003339617,0.46323156,-1.6404151,1.452047,-0.08506598,191.30101,12.832431,0.24998435,0.2699782,0.14480396,0.10013063,inf,inf,inf,inf,1,1,1,1,4,5,2,2,3,1,1,1,0,0,0
775003946,775001526,743568282,43.781802299999995,-79.4665002,0.007845243,0.04280765,-12.728589,1.8680748,0.57801974,-0.03501063,0.0095724445,0.22124131,-4.4838367,-4.1564775,0.008004123,0.010489854,0.037776098,-0.1822953,-0.12281451,-0.013777487,1.4515649,-0.08506598,191.30101,13.221582,0.24054328,0.2641835,0.13921556,0.09817763,inf,inf,inf,inf,1,1,1,1,4,5,2,2,3,1,1,1,0,0,0
775111612,775109731,743568282,43.781802299999995,-79.4665002,0.012342725,0.06471491,-13.174687,1.8680748,0.57801974,-0.03501063,-0.007419073,0.2477526,-4.566492,-4.236599,0.008004123,0.010489854,0.037776098,-0.19411989,0.1837875,-2.2440648,1.4486986,-0.08506598,191.30101,13.667681,0.25082475,0.2701642,0.14479947,0.10024965,inf,inf,inf,inf,1,1,1,1,4,5,2,2,3,1,1,1,0,0,0
775210537,775208913,743568282,43.781802299999995,-79.4665002,0.01509726,0.089905664,-13.592839,1.8680748,0.57801974,-0.03501063,-0.013636201,0.26493338,-4.6222324,-4.2917924,0.008004123,0.010489854,0.037776098,0.051386632,0.40077454,-0.17869902,1.4460251,-0.08506598,191.30101,14.085833,0.24132754,0.26438487,0.13863409,0.09830346,inf,inf,inf,inf,1,1,1,1,4,5,2,2,3,1,1,1,0,0,0
775309820,775308097,743568282,43.781802299999995,-79.4665002,0.016157556,0.11689491,-14.027211,1.8680748,0.57801974,-0.03501063,-0.030922553,0.27182835,-4.6766334,-4.355603,0.008004123,0.010489854,0.037776098,-0.70683944,0.12789392,-0.5980653,1.4460753,-0.08506598,191.30101,14.520205,0.25075275,0.26974148,0.14342085,0.10017793,inf,inf,inf,inf,1,1,1,1,4,5,2,2,3,1,1,1,0,0,0
775409168,775407282,743568282,43.781802299999995,-79.4665002,0.018834371,0.14507595,-14.469841,1.8680748,0.57801974,-0.03501063,-0.039126735,0.28239423,-4.66366,-4.35696,0.008004123,0.010489854,0.037776098,-0.67693037,0.5391793,0.31190053,1.447621,-0.08506598,191.30101,14.962834,0.24123405,0.26398838,0.13724723,0.09823733,inf,inf,inf,inf,1,1,1,1,4,5,2,2,3,1,1,1,0,0,0
775509624,775506467,743568282,43.781802299999995,-79.4665002,0.01973483,0.174285,-14.918855,1.8680748,0.57801974,-0.03501063,-0.046410855,0.2888415,-4.663517,-4.377035,0.008004123,0.010489854,0.037776098,-0.1067005,0.2771539,-0.559572,1.4491218,-0.08506598,191.30101,15.411848,0.25060874,0.2693307,0.14162517,0.10010543,inf,inf,inf,inf,1,1,1,1,4,5,2,2,3,1,1,1,0,0,0
775608605,775605668,743568282,43.781802299999995,-79.4665002,0.019881768,0.20616022,-15.374937,1.8680748,0.57801974,-0.03501063,-0.05116104,0.28740034,-4.667443,-4.4048333,0.008004123,0.010489854,0.037776098,0.23933041,-0.1292385,0.8649859,1.4489293,-0.08506598,191.30101,15.86793,0.24098568,0.2635745,0.1353846,0.09814907,inf,inf,inf,inf,1,1,1,1,4,5,2,2,3,1,1,1,0,0,0
775707947,775704838,743568282,43.781802299999995,-79.4665002,0.018108943,0.23793237,-15.835524,1.8680748,0.57801974,-0.03501063,-0.06744914,0.28022078,-4.6828904,-4.4448752,0.008004123,0.010489854,0.037776098,-0.15696065,-0.72088754,-0.051696494,1.4470828,-0.08506598,191.30101,16.328518,0.25028005,0.26970214,0.13970643,0.100162685,inf,inf,inf,inf,1,1,1,1,4,5,2,2,3,1,1,1,0,0,0
775807393,775804022,743568282,43.781802299999995,-79.4665002,0.015521977,0.26943976,-16.303406,1.8680748,0.57801974,-0.03501063,-0.07503195,0.26933146,-4.6933093,-4.4838023,0.008004123,0.010489854,0.037776098,-0.21843278,-0.0020174265,-0.887246,1.4453242,-0.08506598,191.30101,16.7964,0.24068426,0.26391864,0.13372488,0.09819912,inf,inf,inf,inf,1,1,1,1,4,5,2,2,3,1,1,1,0,0,0
775904859,775903210,743568282,43.781802299999995,-79.4665002,0.011047964,0.29861277,-16.772377,1.8680748,0.57801974,-0.03501063,-0.090961404,0.24841344,-4.7126102,-4.5277085,0.008004123,0.010489854,0.037776098,-1.0885105,0.86274284,-1.0004503,1.4451144,-0.08506598,191.30101,17.265371,0.2499007,0.26928988,0.13802694,0.10007384,inf,inf,inf,inf,1,1,1,1,4,5,2,2,3,1,1,1,0,0,0
776005352,776002391,743568282,43.781802299999995,-79.4665002,0.0071584354,0.32597044,-17.250204,1.8680748,0.57801974,-0.03501063,-0.086986855,0.21683137,-4.7324286,-4.5757346,0.008004123,0.010489854,0.037776098,-0.09530402,-0.73508793,-0.15165317,1.4466343,-0.08506598,191.30101,17.743198,0.24038514,0.2635313,0.13233507,0.0981169,inf,inf,inf,inf,1,1,1,1,4,5,2,2,3,1,1,1,0,0,0
776112232,776110593,743568282,43.781802299999995,-79.4665002,0.0021567075,0.35172528,-17.776234,1.8680748,0.57801974,-0.03501063,-0.08208586,0.1766231,-4.771079,-4.6418023,0.008004123,0.010489854,0.037776098,0.5679135,-0.6486312,-0.03101757,1.4471405,-0.08506598,191.30101,18.269228,0.2503905,0.26952812,0.13707176,0.10018481,inf,inf,inf,inf,1,1,1,1,4,5,2,2,3,1,1,1,0,0,0
776203921,776200763,743568282,43.781802299999995,-79.4665002,-0.002291549,0.37088346,-18.22212,1.8680748,0.57801974,-0.03501063,-0.08395218,0.13834275,-4.8012366,-4.6973753,0.008004123,0.010489854,0.037776098,0.1732386,-1.1513715,-0.038592353,1.4476758,-0.08506598,191.30101,18.715115,0.24004494,0.26316583,0.13111234,0.09804196,inf,inf,inf,inf,1,1,1,1,4,5,2,2,3,1,1,1,0,0,0
776310740,776308975,743568282,43.781802299999995,-79.4665002,-0.008448504,0.3884105,-18.758656,1.8680748,0.57801974,-0.03501063,-0.08078083,0.093414545,-4.8143077,-4.73619,0.008004123,0.010489854,0.037776098,-0.21020396,-0.54062724,-0.03709406,1.4486254,-0.08506598,191.30101,19.25165,0.24997939,0.26915395,0.13579722,0.100108,inf,inf,inf,inf,1,1,1,1,4,5,2,2,3,1,1,1,0,0,0
776409604,776408147,743568282,43.781802299999995,-79.4665002,-0.015425787,0.400699,-19.259125,1.8680748,0.57801974,-0.03501063,-0.074746296,0.03804793,-4.833375,-4.7836003,0.008004123,0.010489854,0.037776098,0.79664075,-0.97919714,0.6197596,1.4491589,-0.08506598,191.30101,19.75212,0.2405178,0.26342544,0.13039732,0.09816577,inf,inf,inf,inf,1,1,1,1,4,5,2,2,3,1,1,1,0,0,0
776508971,776507332,743568282,43.781802299999995,-79.4665002,-0.022788791,0.40718967,-19.758402,1.8680748,0.57801974,-0.03501063,-0.07865361,-0.0054339077,-4.8362093,-4.808592,0.008004123,0.010489854,0.037776098,-0.42076963,-0.16331914,0.26698315,1.4493786,-0.08506598,191.30101,20.251396,0.2495833,0.26878545,0.134664,0.10003601,inf,inf,inf,inf,1,1,1,1,4,5,2,2,3,1,1,1,0,0,0
776608832,776606519,743568282,43.781802299999995,-79.4665002,-0.03033214,0.41122162,-20.262981,1.8680748,0.57801974,-0.03501063,-0.07086963,-0.041942835,-4.846408,-4.8433113,0.008004123,0.010489854,0.037776098,0.6188541,-0.48490754,0.34249797,1.4479151,-0.08506598,191.30101,20.755976,0.24010532,0.263049,0.12933905,0.09808023,inf,inf,inf,inf,1,1,1,1,4,5,2,2,3,1,1,1,0,0,0
776708539,776705701,743568282,43.781802299999995,-79.4665002,-0.038423005,0.41131732,-20.76565,1.8680748,0.57801974,-0.03501063,-0.07982703,-0.07372462,-4.8547864,-4.8706903,0.008004123,0.010489854,0.037776098,-0.040471498,-0.22823705,0.14724824,1.4463981,-0.08506598,191.30101,21.258644,0.24909896,0.2691856,0.13357235,0.10009611,inf,inf,inf,inf,1,1,1,1,4,5,2,2,3,1,1,1,0,0,0
776806658,776804894,743568282,43.781802299999995,-79.4665002,-0.04698154,0.40861854,-21.273857,1.8680748,0.57801974,-0.03501063,-0.08096211,-0.1011153,-4.8791294,-4.9167275,0.008004123,0.010489854,0.037776098,0.6055193,-1.3210255,0.24188396,1.4447684,-0.08506598,191.30101,21.766851,0.23962715,0.26343238,0.12836982,0.09813813,inf,inf,inf,inf,1,1,1,1,4,5,2,2,3,1,1,1,0,0,0
776905927,776904071,743568282,43.781802299999995,-79.4665002,-0.0558278,0.40174252,-21.78072,1.8680748,0.57801974,-0.03501063,-0.08918451,-0.136683,-4.8898487,-4.9438796,0.008004123,0.010489854,0.037776098,-0.7183332,-0.64342535,-0.2773089,1.4464759,-0.08506598,191.30101,22.273714,0.24855313,0.26882023,0.13259281,0.10001876,inf,inf,inf,inf,1,1,1,1,4,5,2,2,3,1,1,1,0,0,0
777006117,777003258,743568282,43.781802299999995,-79.4665002,-0.06481801,0.38974696,-22.294193,1.8680748,0.57801974,-0.03501063,-0.0822115,-0.17440179,-4.901702,-4.975105,0.008004123,0.010489854,0.037776098,-0.03649453,-0.35762134,-0.0049002613,1.4491264,-0.08506598,191.30101,22.787188,0.23913585,0.26310056,0.12757616,0.09807071,inf,inf,inf,inf,1,1,1,1,4,5,2,2,3,1,1,1,0,0,0
777105425,777102451,743568282,43.781802299999995,-79.4665002,-0.07349758,0.37414473,-22.807194,1.8680748,0.57801974,-0.03501063,-0.077286445,-0.18863909,-4.922698,-5.01056,0.008004123,0.010489854,0.037776098,-0.29157367,0.20925567,0.5856211,1.449916,-0.08506598,191.30101,23.300188,0.24800341,0.26847285,0.1318643,0.09994742,inf,inf,inf,inf,1,1,1,1,4,5,2,2,3,1,1,1,0,0,0
777204030,777201628,743568282,43.781802299999995,-79.4665002,-0.082059436,0.35738403,-23.32675,1.8680748,0.57801974,-0.03501063,-0.06653099,-0.19977362,-4.9442344,-5.0501842,0.008004123,0.010489854,0.037776098,0.90417933,-1.4130921,0.8679067,1.4495673,-0.08506598,191.30101,23.819744,0.23868856,0.26278466,0.12695003,0.098008804,inf,inf,inf,inf,1,1,1,1,4,5,2,2,3,1,1,1,0,0,0
777311446,777309825,743568282,43.781802299999995,-79.4665002,-0.09052579,0.33823255,-23.891523,1.8680748,0.57801974,-0.03501063,-0.06010413,-0.19714849,-4.974372,-5.093673,0.008004123,0.010489854,0.037776098,0.56692916,-0.29097772,-1.1664788,1.4482446,-0.08506598,191.30101,24.384518,0.24833311,0.2687864,0.13153714,0.10008013,inf,inf,inf,inf,1,1,1,1,4,5,2,2,3,1,1,1,0,0,0
777410635,777409010,743568282,43.781802299999995,-79.4665002,-0.09906194,0.3194919,-24.415964,1.8680748,0.57801974,-0.03501063,-0.049720917,-0.19920069,-4.9865537,-5.1212387,0.008004123,0.010489854,0.037776098,0.35744575,-0.1043944,-0.01983972,1.4469874,-0.08506598,191.30101,24.908958,0.23910047,0.26311332,0.12676021,0.09814886,inf,inf,inf,inf,1,1,1,1,4,5,2,2,3,1,1,1,0,0,0
777509768,777508194,743568282,43.781802299999995,-79.4665002,-0.106706366,0.3001899,-24.937033,1.8680748,0.57801974,-0.03501063,-0.05030768,-0.19879667,-4.995419,-5.1393223,0.008004123,0.010489854,0.037776098,0.062292527,0.1632348,-1.0777849,1.4465225,-0.08506598,191.30101,25.430027,0.24792308,0.26848996,0.13097613,0.10002346,inf,inf,inf,inf,1,1,1,1,4,5,2,2,3,1,1,1,0,0,0
777610129,777607379,743568282,43.781802299999995,-79.4665002,-0.11531048,0.2788147,-25.459745,1.8680748,0.57801974,-0.03501063,-0.043442722,-0.21582006,-4.9672804,-5.122668,0.008004123,0.010489854,0.037776098,0.05050108,-0.06902873,0.3636852,1.4480321,-0.08506598,191.30101,25.95274,0.23867343,0.26280108,0.12613066,0.098074146,inf,inf,inf,inf,1,1,1,1,4,5,2,2,3,1,1,1,0,0,0
777708857,777706567,743568282,43.781802299999995,-79.4665002,-0.123106495,0.2566513,-25.975727,1.8680748,0.57801974,-0.03501063,-0.03556512,-0.21059234,-4.9434037,-5.10461,0.008004123,0.010489854,0.037776098,-0.052652147,-0.15837632,0.5547866,1.4480864,-0.08506598,191.30101,26.468721,0.24744305,0.2689483,0.13021179,0.10009185,inf,inf,inf,inf,1,1,1,1,4,5,2,2,3,1,1,1,0,0,0
777807590,777805748,743568282,43.781802299999995,-79.4665002,-0.12956803,0.233722,-26.4932,1.8680748,0.57801974,-0.03501063,-0.032215424,-0.20796098,-4.9468484,-5.115944,0.008004123,0.010489854,0.037776098,-0.41398427,-0.083225176,1.2731488,1.4448087,-0.08506598,191.30101,26.986195,0.23823301,0.26322606,0.12538469,0.098136425,inf,inf,inf,inf,1,1,1,1,4,5,2,2,3,1,1,1,0,0,0
777907917,777904936,743568282,43.781802299999995,-79.4665002,-0.13585699,0.21086979,-27.00964,1.8680748,0.57801974,-0.03501063,-0.04292203,-0.20382874,-4.983225,-5.15562,0.008004123,0.010489854,0.037776098,0.173998,0.012864521,-0.13550854,1.4463713,-0.08506598,191.30101,27.502634,0.24695072,0.2686262,0.12960826,0.10001757,inf,inf,inf,inf,1,1,1,1,4,5,2,2,3,1,1,1,0,0,0
778007025,778004117,743568282,43.781802299999995,-79.4665002,-0.14297083,0.1876135,-27.531118,1.8680748,0.57801974,-0.03501063,-0.052122008,-0.18483558,-5.009048,-5.1871395,0.008004123,0.010489854,0.037776098,-0.68038696,1.5208764,-2.4839191,1.4514191,-0.08506598,191.30101,28.024113,0.23782597,0.26291502,0.12498682,0.09804931,inf,inf,inf,inf,1,1,1,1,4,5,2,2,3,1,1,1,0,0,0
778106777,778103301,743568282,43.781802299999995,-79.4665002,-0.15000714,0.16766675,-28.051407,1.8680748,0.57801974,-0.03501063,-0.044288,-0.15441175,-4.9858327,-5.1672964,0.008004123,0.010489854,0.037776098,0.7576613,-0.40933135,2.271077,1.4497004,-0.08506598,191.30101,28.544401,0.2465078,0.26830047,0.12926914,0.09992553,inf,inf,inf,inf,1,1,1,1,4,5,2,2,3,1,1,1,0,0,0
778213097,778211505,743568282,43.781802299999995,-79.4665002,-0.15743394,0.14781384,-28.617685,1.8680748,0.57801974,-0.03501063,-0.06165753,-0.103582405,-4.9742928,-5.159996,0.008004123,0.010489854,0.037776098,-0.14293407,0.5990043,0.6405509,1.4472831,-0.08506598,191.30101,29.11068,0.23831202,0.26326323,0.12501025,0.09816428,inf,inf,inf,inf,1,1,1,1,4,5,2,2,3,1,1,1,0,0,0
778304159,778301672,743568282,43.781802299999995,-79.4665002,-0.16335253,0.13449737,-29.084833,1.8680748,0.57801974,-0.03501063,-0.05868656,-0.08270278,-4.9455266,-5.131886,0.008004123,0.010489854,0.037776098,-0.040724084,-0.013152749,0.36750686,1.4457661,-0.08506598,191.30101,29.577827,0.24618919,0.2680166,0.12871115,0.09984107,inf,inf,inf,inf,1,1,1,1,4,5,2,2,3,1,1,1,0,0,0
778411587,778409871,743568282,43.781802299999995,-79.4665002,-0.16980372,0.11884932,-29.646126,1.8680748,0.57801974,-0.03501063,-0.062625095,-0.055453982,-4.943666,-5.133552,0.008004123,0.010489854,0.037776098,-0.09035039,1.3194816,-2.006287,1.4464041,-0.08506598,191.30101,30.13912,0.23822044,0.2630681,0.124612324,0.09811825,inf,inf,inf,inf,1,1,1,1,4,5,2,2,3,1,1,1,0,0,0
778511029,778509057,743568282,43.781802299999995,-79.4665002,-0.17564099,0.107013725,-30.154734,1.8680748,0.57801974,-0.03501063,-0.06585215,-0.054277476,-4.9264393,-5.1144667,0.008004123,0.010489854,0.037776098,-0.49073923,0.27020478,-0.43526927,1.4473311,-0.08506598,191.30101,30.647728,0.2468814,0.26845106,0.12876156,0.0999898,inf,inf,inf,inf,1,1,1,1,4,5,2,2,3,1,1,1,0,0,0
778610145,778608240,743568282,43.781802299999995,-79.4665002,-0.18127082,0.095705755,-30.664612,1.8680748,0.57801974,-0.03501063,-0.06571408,-0.04740892,-4.8994675,-5.089525,0.008004123,0.010489854,0.037776098,0.3161819,-0.17209268,-0.13274054,1.4473934,-0.08506598,191.30101,31.157606,0.23816665,0.26289007,0.124395356,0.09807552,inf,inf,inf,inf,1,1,1,1,4,5,2,2,3,1,1,1,0,0,0
778709393,778707424,743568282,43.781802299999995,-79.4665002,-0.18694912,0.08655158,-31.1676,1.8680748,0.57801974,-0.03501063,-0.06891573,-0.03546938,-4.895164,-5.08109,0.008004123,0.010489854,0.037776098,-0.46065933,0.64246666,-0.48157147,1.4462626,-0.08506598,191.30101,31.660595,0.24680834,0.26826108,0.12851089,0.099943735,inf,inf,inf,inf,1,1,1,1,4,5,2,2,3,1,1,1,0,0,0
778808065,778806608,743568282,43.781802299999995,-79.4665002,-0.1904439,0.07722411,-31.67518,1.8680748,0.57801974,-0.03501063,-0.060074396,-0.04172722,-4.9055324,-5.0922003,0.008004123,0.010489854,0.037776098,-0.23633519,0.31016088,-0.45549607,1.4458051,-0.08506598,191.30101,32.168175,0.23815079,0.2634677,0.12429081,0.09817141,inf,inf,inf,inf,1,1,1,1,4,5,2,2,3,1,1,1,0,0,0
778907542,778905792,743568282,43.781802299999995,-79.4665002,-0.1938448,0.067304716,-32.182053,1.8680748,0.57801974,-0.03501063,-0.05576891,-0.07167882,-4.9655895,-5.1482687,0.008004123,0.010489854,0.037776098,-0.061678354,-0.5036547,-0.07909382,1.4466088,-0.08506598,191.30101,32.675045,0.24678326,0.26887694,0.12849645,0.10005113,inf,inf,inf,inf,1,1,1,1,4,5,2,2,3,1,1,1,0,0,0
779006716,779004982,743568282,43.781802299999995,-79.4665002,-0.19822367,0.05660625,-32.69378,1.8680748,0.57801974,-0.03501063,-0.08565805,-0.080658406,-4.988572,-5.1693945,0.008004123,0.010489854,0.037776098,-0.19180496,0.16652147,-0.7383512,1.4522294,-0.08506598,191.30101,33.18677,0.23813236,0.2633037,0.12444204,0.098134615,inf,inf,inf,inf,1,1,1,1,4,5,2,2,3,1,1,1,0,0,0
779105612,779104161,743568282,43.781802299999995,-79.4665002,-0.20617191,0.04683978,-33.202446,1.8680748,0.57801974,-0.03501063,-0.108431295,-0.066829495,-4.9746566,-5.1489487,0.008004123,0.010489854,0.037776098,-0.28243968,0.056549482,1.1964846,1.4558924,-0.08506598,191.30101,33.69544,0.24677145,0.26870468,0.12879588,0.10001065,inf,inf,inf,inf,1,1,1,1,4,5,2,2,3,1,1,1,0,0,0
779206250,779203345,743568282,43.781802299999995,-79.4665002,-0.21430902,0.03923057,-33.709866,1.8680748,0.57801974,-0.03501063,-0.11771901,-0.037399396,-4.9786043,-5.147469,0.008004123,0.010489854,0.037776098,0.23953749,0.9607847,0.20417307,1.4541861,-0.08506598,191.30101,34.202858,0.23794295,0.26310202,0.124373406,0.09807107,inf,inf,inf,inf,1,1,1,1,4,5,2,2,3,1,1,1,0,0,0
779305402,779302529,743568282,43.781802299999995,-79.4665002,-0.22405805,0.034394745,-34.212135,1.8680748,0.57801974,-0.03501063,-0.13329408,-0.027343465,-4.9265795,-5.0878797,0.008004123,0.010489854,0.037776098,-0.1519436,-0.23438063,1.2018844,1.4510827,-0.08506598,191.30101,34.705128,0.24656534,0.268485,0.12859805,0.09994104,inf,inf,inf,inf,1,1,1,1,4,5,2,2,3,1,1,1,0,0,0
779413433,779410730,743568282,43.781802299999995,-79.4665002,-0.23491952,0.030390397,-34.758633,1.8680748,0.57801974,-0.03501063,-0.14699195,0.0025622386,-4.917938,-5.074434,0.008004123,0.010489854,0.037776098,-0.035745874,0.19076386,-2.131602,1.4499223,-0.08506598,191.30101,35.251625,0.23840912,0.26351807,0.12455065,0.098201774,inf,inf,inf,inf,1,1,1,1,4,5,2,2,3,1,1,1,0,0,0
779511555,779509913,743568282,43.781802299999995,-79.4665002,-0.24675316,0.028854048,-35.253944,1.8680748,0.57801974,-0.03501063,-0.16022839,0.019555587,-4.8849406,-5.034333,0.008004123,0.010489854,0.037776098,-0.25555775,0.39538804,-0.27924842,1.45083,-0.08506598,191.30101,35.746937,0.24705027,0.2689104,0.12872054,0.100069754,inf,inf,inf,inf,1,1,1,1,4,5,2,2,3,1,1,1,0,0,0
779610840,779609097,743568282,43.781802299999995,-79.4665002,-0.25900483,0.028432025,-35.750393,1.8680748,0.57801974,-0.03501063,-0.15383793,0.04223852,-4.8910403,-5.035388,0.008004123,0.010489854,0.037776098,-0.5104869,0.2562628,0.43499756,1.4520111,-0.08506598,191.30101,36.243385,0.2381419,0.26331314,0.12436347,0.09813757,inf,inf,inf,inf,1,1,1,1,4,5,2,2,3,1,1,1,0,0,0
779710606,779708281,743568282,43.781802299999995,-79.4665002,-0.27088848,0.03051213,-36.245907,1.8680748,0.57801974,-0.03501063,-0.13176106,0.051105965,-4.9199953,-5.0571346,0.008004123,0.010489854,0.037776098,0.11687924,0.42134643,-0.20693247,1.4526845,-0.08506598,191.30101,36.7389,0.24676834,0.26869458,0.12866227,0.100002654,inf,inf,inf,inf,1,1,1,1,4,5,2,2,3,1,1,1,0,0,0
779809350,779807465,743568282,43.781802299999995,-79.4665002,-0.28119287,0.03347265,-36.744583,1.8680748,0.57801974,-0.03501063,-0.13475293,0.053103868,-4.9312487,-5.0632153,0.008004123,0.010489854,0.037776098,-0.8419547,0.7414221,1.004126,1.4522597,-0.08506598,191.30101,37.237576,0.23799294,0.26387092,0.1245235,0.09821644,inf,inf,inf,inf,1,1,1,1,4,5,2,2,3,1,1,1,0,0,0
779909820,779906649,743568282,43.781802299999995,-79.4665002,-0.29217553,0.036848802,-37.241062,1.8680748,0.57801974,-0.03501063,-0.14039597,0.05718868,-4.9434547,-5.0678444,0.008004123,0.010489854,0.037776098,-0.9087847,1.0789616,-0.19289947,1.4523281,-0.08506598,191.30101,37.734055,0.2466222,0.2692849,0.12884384,0.10009048,inf,inf,inf,inf,1,1,1,1,4,5,2,2,3,1,1,1,0,0,0
780008539,780005833,743568282,43.781802299999995,-79.4665002,-0.30109784,0.040461015,-37.740208,1.8680748,0.57801974,-0.03501063,-0.1219298,0.04077372,-4.9400816,-5.0611444,0.008004123,0.010489854,0.037776098,0.6129317,-0.34451166,-0.60377705,1.4535414,-0.08506598,191.30101,38.2332,0.23791231,0.2637108,0.1246259,0.098165624,inf,inf,inf,inf,1,1,1,1,4,5,2,2,3,1,1,1,0,0,0
780106831,780105018,743568282,43.781802299999995,-79.4665002,-0.3096947,0.043670353,-38.235554,1.8680748,0.57801974,-0.03501063,-0.11738864,0.036338758,-4.908779,-5.0238876,0.008004123,0.010489854,0.037776098,0.11239394,-0.5634582,-0.0430643,1.4548153,-0.08506598,191.30101,38.728546,0.24654168,0.2691146,0.12888014,0.10003736,inf,inf,inf,inf,1,1,1,1,4,5,2,2,3,1,1,1,0,0,0
780206968,780204201,743568282,43.781802299999995,-79.4665002,-0.31718963,0.04748012,-38.725235,1.8680748,0.57801974,-0.03501063,-0.10733231,0.029456558,-4.895646,-5.0029573,0.008004123,0.010489854,0.037776098,0.42426845,0.16181894,-0.11062344,1.4541165,-0.08506598,191.30101,39.218227,0.23766595,0.2634513,0.124316454,0.098047145,inf,inf,inf,inf,1,1,1,1,4,5,2,2,3,1,1,1,0,0,0
780305135,780303385,743568282,43.781802299999995,-79.4665002,-0.32396752,0.051526994,-39.21334,1.8680748,0.57801974,-0.03501063,-0.09399985,0.035478175,-4.916948,-5.014766,0.008004123,0.010489854,0.037776098,0.65731996,0.2467685,0.08943183,1.4555104,-0.08506598,191.30101,39.706333,0.24626687,0.26883528,0.1285825,0.09991431,inf,inf,inf,inf,1,1,1,1,4,5,2,2,3,1,1,1,0,0,0
780405393,780402568,743568282,43.781802299999995,-79.4665002,-0.32841882,0.057301782,-39.702015,1.8680748,0.57801974,-0.03501063,-0.0743062,0.06687487,-4.9012313,-4.9916253,0.008004123,0.010489854,0.037776098,0.6464876,0.489051,-1.1559904,1.4528706,-0.08506598,191.30101,40.195007,0.23765239,0.26330408,0.12443411,0.097989984,inf,inf,inf,inf,1,1,1,1,4,5,2,2,3,1,1,1,0,0,0
780513410,780510771,743568282,43.781802299999995,-79.4665002,-0.3321129,0.066633746,-40.233047,1.8680748,0.57801974,-0.03501063,-0.062848344,0.09311163,-4.910778,-4.9928527,0.008004123,0.010489854,0.037776098,0.10853638,-0.17627327,-1.8396665,1.4497122,-0.08506598,191.30101,40.72604,0.24706301,0.26931244,0.12903072,0.100048915,inf,inf,inf,inf,1,1,1,1,4,5,2,2,3,1,1,1,0,0,0
780604223,780600936,743568282,43.781802299999995,-79.4665002,-0.33525127,0.07334141,-40.678745,1.8680748,0.57801974,-0.03501063,-0.045666505,0.08138582,-4.9180346,-4.995197,0.008004123,0.010489854,0.037776098,0.58081967,-0.9337784,0.8320881,1.450413,-0.08506598,191.30101,41.171738,0.23768581,0.26316214,0.124531336,0.09793417,inf,inf,inf,inf,1,1,1,1,4,5,2,2,3,1,1,1,0,0,0
780711447,780709136,743568282,43.781802299999995,-79.4665002,-0.33867556,0.08069318,-41.215862,1.8680748,0.57801974,-0.03501063,-0.036485367,0.075786844,-4.941417,-5.0133386,0.008004123,0.010489854,0.037776098,0.4532944,-0.20865808,0.44949967,1.4513539,-0.08506598,191.30101,41.708855,0.24710397,0.2691586,0.12928672,0.09999235,inf,inf,inf,inf,1,1,1,1,4,5,2,2,3,1,1,1,0,0,0
780810176,780808320,743568282,43.781802299999995,-79.4665002,-0.33993268,0.08877492,-41.710278,1.8680748,0.57801974,-0.03501063,-0.026013618,0.07345825,-4.95432,-5.0226483,0.008004123,0.010489854,0.037776098,0.97516066,-1.4383975,0.40444523,1.4512525,-0.08506598,191.30101,42.20327,0.23856317,0.26439437,0.12511435,0.0982175,inf,inf,inf,inf,1,1,1,1,4,5,2,2,3,1,1,1,0,0,0
780910390,780907505,743568282,43.781802299999995,-79.4665002,-0.34064767,0.09690448,-42.20492,1.8680748,0.57801974,-0.03501063,-0.015288088,0.0703105,-4.960572,-5.0247564,0.008004123,0.010489854,0.037776098,0.8600737,-0.85828817,0.44986847,1.450098,-0.08506598,191.30101,42.697914,0.24723212,0.2698043,0.12946188,0.10008909,inf,inf,inf,inf,1,1,1,1,4,5,2,2,3,1,1,1,0,0,0
781008136,781006687,743568282,43.781802299999995,-79.4665002,-0.33703345,0.10472013,-42.697308,1.8680748,0.57801974,-0.03501063,-0.0012970723,0.074448414,-4.9326887,-4.9918222,0.008004123,0.010489854,0.037776098,-0.5321379,-0.24717993,0.7619041,1.4476752,-0.08506598,191.30101,43.1903,0.23862217,0.26424164,0.12515959,0.098151,inf,inf,inf,inf,1,1,1,1,4,5,2,2,3,1,1,1,0,0,0
781107458,781105872,743568282,43.781802299999995,-79.4665002,-0.33310413,0.1127766,-43.18674,1.8680748,0.57801974,-0.03501063,0.0019458889,0.078497745,-4.932159,-4.985152,0.008004123,0.010489854,0.037776098,0.10653841,-0.24972555,0.86251616,1.4456186,-0.08506598,191.30101,43.679733,0.24728961,0.2696389,0.12942359,0.10001932,inf,inf,inf,inf,1,1,1,1,4,5,2,2,3,1,1,1,0,0,0
781207017,781205054,743568282,43.781802299999995,-79.4665002,-0.3294903,0.12160306,-43.67582,1.8680748,0.57801974,-0.03501063,0.0064784493,0.08106314,-4.965099,-5.011252,0.008004123,0.010489854,0.037776098,0.6757143,-0.40467837,0.35327372,1.4475391,-0.08506598,191.30101,44.16881,0.23853973,0.2640112,0.12498522,0.0980393,inf,inf,inf,inf,1,1,1,1,4,5,2,2,3,1,1,1,0,0,0
781306015,781304239,743568282,43.781802299999995,-79.4665002,-0.32538465,0.13048302,-44.166466,1.8680748,0.57801974,-0.03501063,0.019841477,0.09001858,-4.945818,-4.987411,0.008004123,0.010489854,0.037776098,0.78732634,-0.37382904,0.24907814,1.4483289,-0.08506598,191.30101,44.65946,0.24719086,0.2693918,0.1293763,0.099905916,inf,inf,inf,inf,1,1,1,1,4,5,2,2,3,1,1,1,0,0,0
781406338,781403421,743568282,43.781802299999995,-79.4665002,-0.31816474,0.13870679,-44.655155,1.8680748,0.57801974,-0.03501063,0.042816967,0.093908004,-4.9383082,-4.9750867,0.008004123,0.010489854,0.037776098,0.14573745,0.3986031,-0.18894114,1.4466976,-0.08506598,191.30101,45.148148,0.23871139,0.26387855,0.12505163,0.09798778,inf,inf,inf,inf,1,1,1,1,4,5,2,2,3,1,1,1,0,0,0
781513535,781511621,743568282,43.781802299999995,-79.4665002,-0.30735177,0.14825936,-45.18657,1.8680748,0.57801974,-0.03501063,0.07756104,0.10388849,-4.9371085,-4.967789,0.008004123,0.010489854,0.037776098,0.17939465,0.6680097,0.079286106,1.4445809,-0.08506598,191.30101,45.67956,0.24817714,0.26987967,0.12978153,0.10004585,inf,inf,inf,inf,1,1,1,1,4,5,2,2,3,1,1,1,0,0,0
781604291,781601803,743568282,43.781802299999995,-79.4665002,-0.2962288,0.1570739,-45.62702,1.8680748,0.57801974,-0.03501063,0.10840638,0.10361491,-4.8555207,-4.88139,0.008004123,0.010489854,0.037776098,0.81652915,-1.5249338,4.5890284,1.4454355,-0.08506598,191.30101,46.120014,0.23889968,0.26376233,0.12513766,0.09794195,inf,inf,inf,inf,1,1,1,1,4,5,2,2,3,1,1,1,0,0,0
781711872,781709988,743568282,43.781802299999995,-79.4665002,-0.28160605,0.16863705,-46.136066,1.8680748,0.57801974,-0.03501063,0.11766303,0.12927811,-4.5898914,-4.610659,0.008004123,0.010489854,0.037776098,-0.02738619,1.3036113,-1.0649849,1.4444438,-0.08506598,191.30101,46.62906,0.24836543,0.26975167,0.12949848,0.09999811,inf,inf,inf,inf,1,1,1,1,4,5,2,2,3,1,1,1,0,0,0
781811088,781809172,743568282,43.781802299999995,-79.4665002,-0.26527715,0.17986849,-46.57662,1.8680748,0.57801974,-0.03501063,0.13333035,0.12701349,-4.2451587,-4.267186,0.008004123,0.010489854,0.037776098,2.4265573,-1.9154423,3.14847,1.4417052,-0.08506598,191.30101,47.06961,0.2397796,0.26497847,0.124289036,0.0982087,inf,inf,inf,inf,1,1,1,1,4,5,2,2,3,1,1,1,0,0,0
781911585,781908356,743568282,43.781802299999995,-79.4665002,-0.24880713,0.1917839,-46.978836,1.8680748,0.57801974,-0.03501063,0.13373253,0.13547814,-3.8448365,-3.8682706,0.008004123,0.010489854,0.037776098,2.2580805,-1.7820436,3.8782086,1.4404602,-0.08506598,191.30101,47.47183,0.24839146,0.27038246,0.12726872,0.10007964,inf,inf,inf,inf,1,1,1,1,4,5,2,2,3,1,1,1,0,0,0
782009217,782007538,743568282,43.781802299999995,-79.4665002,-0.23053679,0.20396794,-47.35523,1.8680748,0.57801974,-0.03501063,0.13365589,0.12816355,-3.4158354,-3.4538887,0.008004123,0.010489854,0.037776098,0.06330524,-0.44617364,4.2079215,1.4376042,-0.08506598,191.30101,47.84822,0.2398574,0.26483545,0.1219583,0.098149486,inf,inf,inf,inf,1,1,1,1,4,5,2,2,3,1,1,1,0,0,0
782109136,782106722,743568282,43.781802299999995,-79.4665002,-0.21368091,0.2169429,-47.693333,1.8680748,0.57801974,-0.03501063,0.10395448,0.15543146,-3.0296698,-3.0813844,0.008004123,0.010489854,0.037776098,-0.8383707,0.6526023,3.7582757,1.4357018,-0.08506598,191.30101,48.186325,0.24833925,0.270223,0.12487815,0.100018255,inf,inf,inf,inf,1,1,1,1,4,5,2,2,3,1,1,1,0,0,0
782207774,782205905,743568282,43.781802299999995,-79.4665002,-0.19989897,0.23260929,-48.007313,1.8680748,0.57801974,-0.03501063,0.098970555,0.12924783,-2.6751502,-2.7521255,0.008004123,0.010489854,0.037776098,1.6421764,-2.2121394,4.1890826,1.4368865,-0.08506598,191.30101,48.500305,0.23987113,0.26469564,0.119861156,0.09809394,inf,inf,inf,inf,1,1,1,1,4,5,2,2,3,1,1,1,0,0,0
782306795,782305090,743568282,43.781802299999995,-79.4665002,-0.1876341,0.24645475,-48.28317,1.8680748,0.57801974,-0.03501063,0.087110646,0.12066176,-2.3259425,-2.4227114,0.008004123,0.010489854,0.037776098,-0.66292185,0.15535875,4.276862,1.4374535,-0.08506598,191.30101,48.77616,0.24823326,0.2700706,0.12281298,0.09995924,inf,inf,inf,inf,1,1,1,1,4,5,2,2,3,1,1,1,0,0,0
782407020,782404272,743568282,43.781802299999995,-79.4665002,-0.1773628,0.25853616,-48.53754,1.8680748,0.57801974,-0.03501063,0.07541095,0.10086967,-2.013726,-2.138227,0.008004123,0.010489854,0.037776098,-2.0093284,-0.32176763,7.4583125,1.4352496,-0.08506598,191.30101,49.030533,0.23983048,0.26456204,0.11830567,0.09804315,inf,inf,inf,inf,1,1,1,1,4,5,2,2,3,1,1,1,0,0,0
782505312,782503456,743568282,43.781802299999995,-79.4665002,-0.17019954,0.26932186,-48.76315,1.8680748,0.57801974,-0.03501063,0.025559768,0.10335611,-1.758658,-1.9054897,0.008004123,0.010489854,0.037776098,-3.7445483,0.62721497,4.965585,1.4347694,-0.08506598,191.30101,49.25614,0.24809523,0.2699212,0.1215344,0.09990549,inf,inf,inf,inf,1,1,1,1,4,5,2,2,3,1,1,1,0,0,0
782605701,782602638,743568282,43.781802299999995,-79.4665002,-0.1665519,0.28159833,-48.96715,1.8680748,0.57801974,-0.03501063,-0.007119473,0.10687741,-1.4896061,-1.6621873,0.008004123,0.010489854,0.037776098,-2.9223423,0.81108886,4.591321,1.4375566,-0.08506598,191.30101,49.460144,0.23972231,0.2644345,0.117383674,0.097995296,inf,inf,inf,inf,1,1,1,1,4,5,2,2,3,1,1,1,0,0,0
782703562,782701821,743568282,43.781802299999995,-79.4665002,-0.1660509,0.29443026,-49.140438,1.8680748,0.57801974,-0.03501063,-0.0117144715,0.11108407,-1.2404219,-1.4291509,0.008004123,0.010489854,0.037776098,0.19219945,-0.2308604,5.928944,1.4398105,-0.08506598,191.30101,49.63343,0.24791832,0.27057973,0.12068005,0.10000192,inf,inf,inf,inf,1,1,1,1,4,5,2,2,3,1,1,1,0,0,0
782812837,782810022,743568282,43.781802299999995,-79.4665002,-0.1660474,0.3117423,-49.303894,1.8680748,0.57801974,-0.03501063,-0.021139534,0.13933341,-0.9994944,-1.2078974,0.008004123,0.010489854,0.037776098,1.2980366,-1.6444956,4.299867,1.4399172,-0.08506598,191.30101,49.796886,0.24026102,0.2649145,0.11687151,0.09814004,inf,inf,inf,inf,1,1,1,1,4,5,2,2,3,1,1,1,0,0,0
782911963,782909205,743568282,43.781802299999995,-79.4665002,-0.16710228,0.32869554,-49.429844,1.8680748,0.57801974,-0.03501063,-0.03402934,0.14411387,-0.8226022,-1.0416305,0.008004123,0.010489854,0.037776098,-1.9221431,1.088989,4.2636333,1.4393928,-0.08506598,191.30101,49.922836,0.24843888,0.2710718,0.1204232,0.10014596,inf,inf,inf,inf,1,1,1,1,4,5,2,2,3,1,1,1,0,0,0
783010046,783008387,743568282,43.781802299999995,-79.4665002,-0.16909659,0.34688056,-49.54342,1.8680748,0.57801974,-0.03501063,-0.041698124,0.15591031,-0.6870101,-0.91712064,0.008004123,0.010489854,0.037776098,-0.91861826,0.9579899,-0.75734013,1.4393833,-0.08506598,191.30101,50.03641,0.2400216,0.26552984,0.11677744,0.098229535,inf,inf,inf,inf,1,1,1,1,4,5,2,2,3,1,1,1,0,0,0
783109270,783107579,743568282,43.781802299999995,-79.4665002,-0.1722238,0.365279,-49.635887,1.8680748,0.57801974,-0.03501063,-0.048395533,0.15665586,-0.5420971,-0.77603555,0.008004123,0.010489854,0.037776098,-2.3168066,0.5622085,1.1058419,1.4409155,-0.08506598,191.30101,50.12888,0.24818121,0.27091223,0.12046243,0.1000919,inf,inf,inf,inf,1,1,1,1,4,5,2,2,3,1,1,1,0,0,0
783208383,783206753,743568282,43.781802299999995,-79.4665002,-0.17551681,0.3831773,-49.71422,1.8680748,0.57801974,-0.03501063,-0.042787462,0.15653865,-0.46117145,-0.696596,0.008004123,0.010489854,0.037776098,0.32584232,-1.0754254,4.243854,1.4419113,-0.08506598,191.30101,50.20721,0.23972273,0.26535246,0.11691602,0.098157525,inf,inf,inf,inf,1,1,1,1,4,5,2,2,3,1,1,1,0,0,0
783308781,783305937,743568282,43.781802299999995,-79.4665002,-0.17949614,0.40002006,-49.779003,1.8680748,0.57801974,-0.03501063,-0.05424101,0.159216,-0.38568544,-0.61841965,0.008004123,0.010489854,0.037776098,1.1970277,1.3962275,-3.5534163,1.4417417,-0.08506598,191.30101,50.271996,0.2478692,0.27072102,0.12069703,0.1000165,inf,inf,inf,inf,1,1,1,1,4,5,2,2,3,1,1,1,0,0,0
783406787,783405129,743568282,43.781802299999995,-79.4665002,-0.18217081,0.4163129,-49.834347,1.8680748,0.57801974,-0.03501063,-0.051578593,0.1368838,-0.2471982,-0.47801924,0.008004123,0.010489854,0.037776098,-1.5854563,-0.08986331,3.4431074,1.4408169,-0.08506598,191.30101,50.32734,0.2394998,0.26519513,0.11725091,0.09810819,inf,inf,inf,inf,1,1,1,1,4,5,2,2,3,1,1,1,0,0,0
783507085,783504307,743568282,43.781802299999995,-79.4665002,-0.18518607,0.43083102,-49.87775,1.8680748,0.57801974,-0.03501063,-0.05929228,0.13111758,-0.20489605,-0.4307248,0.008004123,0.010489854,0.037776098,-0.87559754,0.9294718,-1.9637744,1.4412092,-0.08506598,191.30101,50.370743,0.24765693,0.27055198,0.12130464,0.099963985,inf,inf,inf,inf,1,1,1,1,4,5,2,2,3,1,1,1,0,0,0
783607703,783603486,743568282,43.781802299999995,-79.4665002,-0.18792072,0.44490483,-49.911205,1.8680748,0.57801974,-0.03501063,-0.049812127,0.09737931,-0.15575673,-0.37311703,0.008004123,0.010489854,0.037776098,1.9464403,-1.8186163,0.99125546,1.4438438,-0.08506598,191.30101,50.404198,0.23920688,0.2648641,0.11780998,0.098013416,inf,inf,inf,inf,1,1,1,1,4,5,2,2,3,1,1,1,0,0,0
783705614,783702671,743568282,43.781802299999995,-79.4665002,-0.1911683,0.4562332,-49.936836,1.8680748,0.57801974,-0.03501063,-0.047379564,0.071799666,-0.108078375,-0.31456283,0.008004123,0.010489854,0.037776098,0.99333584,-0.33335155,2.8194,1.4458649,-0.08506598,191.30101,50.42983,0.24738033,0.27100486,0.12189456,0.10001475,inf,inf,inf,inf,1,1,1,1,4,5,2,2,3,1,1,1,0,0,0
783813338,783810868,743568282,43.781802299999995,-79.4665002,-0.19471297,0.4669016,-49.95326,1.8680748,0.57801974,-0.03501063,-0.050945554,0.05546567,-0.08222717,-0.27077955,0.008004123,0.010489854,0.037776098,0.9445504,-0.5920337,-1.0806003,1.4470608,-0.08506598,191.30101,50.44625,0.23965098,0.26514718,0.11905219,0.098117724,inf,inf,inf,inf,1,1,1,1,4,5,2,2,3,1,1,1,0,0,0
783902741,783901034,743568282,43.781802299999995,-79.4665002,-0.19800435,0.4735329,-49.964355,1.8680748,0.57801974,-0.03501063,-0.058674477,0.041720428,-0.043994695,-0.21969935,0.008004123,0.010489854,0.037776098,-0.1240119,1.0093685,-1.017382,1.448671,-0.08506598,191.30101,50.457348,0.24712707,0.27065685,0.12289109,0.0999243,inf,inf,inf,inf,1,1,1,1,4,5,2,2,3,1,1,1,0,0,0
784011235,784009234,743568282,43.781802299999995,-79.4665002,-0.20343857,0.48137686,-49.966072,1.8680748,0.57801974,-0.03501063,-0.050505992,0.015519574,-0.019311672,-0.17407586,0.008004123,0.010489854,0.037776098,1.0724443,-0.8061504,-0.05212431,1.4505,-0.08506598,191.30101,50.459064,0.2394399,0.26555604,0.11980624,0.09817059,inf,inf,inf,inf,1,1,1,1,4,5,2,2,3,1,1,1,0,0,0
784110066,784108417,743568282,43.781802299999995,-79.4665002,-0.20855151,0.4862801,-49.96582,1.8680748,0.57801974,-0.03501063,-0.048864257,0.0009787373,-0.0021691453,-0.14037941,0.008004123,0.010489854,0.037776098,0.90864486,-0.687191,-0.18986586,1.4505904,-0.08506598,191.30101,50.458813,0.24772082,0.2709315,0.124142185,0.10003283,inf,inf,inf,inf,1,1,1,1,4,5,2,2,3,1,1,1,0,0,0
784209294,784207600,743568282,43.781802299999995,-79.4665002,-0.21274137,0.49027026,-49.955868,1.8680748,0.57801974,-0.03501063,-0.054106686,-0.0065671923,-0.0014345942,-0.116453536,0.008004123,0.010489854,0.037776098,0.6965169,0.9638076,-3.1202812,1.4500762,-0.08506598,191.30101,50.44886,0.23929054,0.26522344,0.12075426,0.09809576,inf,inf,inf,inf,1,1,1,1,4,5,2,2,3,1,1,1,0,0,0
784309482,784306782,743568282,43.781802299999995,-79.4665002,-0.21713758,0.49198315,-49.946053,1.8680748,0.57801974,-0.03501063,-0.05049731,-0.023510553,0.015646128,-0.08046041,0.008004123,0.010489854,0.037776098,-1.6057036,1.5501308,-2.6208262,1.4508505,-0.08506598,191.30101,50.439045,0.24761783,0.2705832,0.12518543,0.09995497,inf,inf,inf,inf,1,1,1,1,4,5,2,2,3,1,1,1,0,0,0
784407670,784405965,743568282,43.781802299999995,-79.4665002,-0.22087504,0.493654,-49.926666,1.8680748,0.57801974,-0.03501063,-0.04213986,-0.04458573,0.005539374,-0.06376706,0.008004123,0.010489854,0.037776098,-0.049400285,-1.0264567,0.9045414,1.4524152,-0.08506598,191.30101,50.41966,0.23915625,0.2649026,0.12181064,0.098026074,inf,inf,inf,inf,1,1,1,1,4,5,2,2,3,1,1,1,0,0,0
784507776,784505149,743568282,43.781802299999995,-79.4665002,-0.22391832,0.49275795,-49.914272,1.8680748,0.57801974,-0.03501063,-0.037936833,-0.052569084,-0.016590768,-0.06672984,0.008004123,0.010489854,0.037776098,-1.2995747,1.3434354,-2.528203,1.4537965,-0.08506598,191.30101,50.407265,0.24753372,0.2702509,0.12631834,0.099884264,inf,inf,inf,inf,1,1,1,1,4,5,2,2,3,1,1,1,0,0,0
784607505,784604331,743568282,43.781802299999995,-79.4665002,-0.22529137,0.48974553,-49.89419,1.8680748,0.57801974,-0.03501063,-0.013575117,-0.07785259,-0.03023108,-0.054054,0.008004123,0.010489854,0.037776098,0.88582253,-0.4907443,-0.23052011,1.4542813,-0.08506598,191.30101,50.387184,0.23895243,0.26454136,0.12282951,0.097938366,inf,inf,inf,inf,1,1,1,1,4,5,2,2,3,1,1,1,0,0,0
784706736,784703514,743568282,43.781802299999995,-79.4665002,-0.22597666,0.4841588,-49.878334,1.8680748,0.57801974,-0.03501063,-0.02026417,-0.08842851,-0.06495805,-0.06840946,0.008004123,0.010489854,0.037776098,0.9375935,-0.4099203,-4.498511,1.4534364,-0.08506598,191.30101,50.371326,0.24737948,0.26987314,0.12735234,0.099793084,inf,inf,inf,inf,1,1,1,1,4,5,2,2,3,1,1,1,0,0,0
784805859,784802696,743568282,43.781802299999995,-79.4665002,-0.22506173,0.47674644,-49.855427,1.8680748,0.57801974,-0.03501063,-0.006284909,-0.11388969,-0.04499638,-0.021449108,0.008004123,0.010489854,0.037776098,-0.60368055,-0.25275385,2.0696905,1.4512278,-0.08506598,191.30101,50.34842,0.23881613,0.26496425,0.123720735,0.097999506,inf,inf,inf,inf,1,1,1,1,4,5,2,2,3,1,1,1,0,0,0
784903668,784901879,743568282,43.781802299999995,-79.4665002,-0.22430333,0.46761757,-49.838837,1.8680748,0.57801974,-0.03501063,-0.00802973,-0.11585892,-0.08565157,-0.04311286,0.008004123,0.010489854,0.037776098,0.3786973,-0.98530716,-0.22000782,1.4503404,-0.08506598,191.30101,50.33183,0.24729206,0.27033088,0.12840842,0.0998641,inf,inf,inf,inf,1,1,1,1,4,5,2,2,3,1,1,1,0,0,0
785011718,785010078,743568282,43.781802299999995,-79.4665002,-0.22159597,0.45501184,-49.81428,1.8680748,0.57801974,-0.03501063,-0.0069796466,-0.12689884,-0.10518524,-0.036399897,0.008004123,0.010489854,0.037776098,-0.14214008,0.39013124,-2.4245431,1.4492433,-0.08506598,191.30101,50.307274,0.23953179,0.26527804,0.124974124,0.098126255,inf,inf,inf,inf,1,1,1,1,4,5,2,2,3,1,1,1,0,0,0
785111117,785109263,743568282,43.781802299999995,-79.4665002,-0.21923143,0.44111264,-49.800488,1.8680748,0.57801974,-0.03501063,0.0010565621,-0.1513381,-0.121071115,-0.0374613,0.008004123,0.010489854,0.037776098,0.5697551,-0.9627858,0.47140777,1.4500939,-0.08506598,191.30101,50.29348,0.24810578,0.2706536,0.12966001,0.09999219,inf,inf,inf,inf,1,1,1,1,4,5,2,2,3,1,1,1,0,0,0
785210117,785208459,743568282,43.781802299999995,-79.4665002,-0.21596856,0.42568645,-49.780285,1.8680748,0.57801974,-0.03501063,0.0067185047,-0.16201037,-0.14693101,-0.041047458,0.008004123,0.010489854,0.037776098,-0.24524318,0.4130401,-1.1896689,1.4518862,-0.08506598,191.30101,50.273277,0.23954034,0.26500273,0.12584753,0.098069474,inf,inf,inf,inf,1,1,1,1,4,5,2,2,3,1,1,1,0,0,0
785309612,785307626,743568282,43.781802299999995,-79.4665002,-0.21288446,0.40887025,-49.77043,1.8680748,0.57801974,-0.03501063,0.015440734,-0.16952474,-0.17800419,-0.06027309,0.008004123,0.010489854,0.037776098,1.523731,-0.6244685,0.4959454,1.4533486,-0.08506598,191.30101,50.263424,0.24816693,0.27036062,0.13051093,0.09993111,inf,inf,inf,inf,1,1,1,1,4,5,2,2,3,1,1,1,0,0,0
785409693,785406809,743568282,43.781802299999995,-79.4665002,-0.20873132,0.39085656,-49.756138,1.8680748,0.57801974,-0.03501063,0.016960494,-0.17535588,-0.19525582,-0.059718344,0.008004123,0.010489854,0.037776098,-0.6294529,0.43804985,-2.1876674,1.4530275,-0.08506598,191.30101,50.24913,0.2394591,0.26468015,0.12642851,0.09799153,inf,inf,inf,inf,1,1,1,1,4,5,2,2,3,1,1,1,0,0,0
785508902,785505991,743568282,43.781802299999995,-79.4665002,-0.20419066,0.3725613,-49.749363,1.8680748,0.57801974,-0.03501063,0.033477068,-0.18077104,-0.18203874,-0.037241023,0.008004123,0.010489854,0.037776098,-0.43288475,-0.31585154,1.6997968,1.4519718,-0.08506598,191.30101,50.242355,0.2481253,0.270026,0.13117039,0.099851504,inf,inf,inf,inf,1,1,1,1,4,5,2,2,3,1,1,1,0,0,0
785607595,785605177,743568282,43.781802299999995,-79.4665002,-0.20125854,0.35437432,-49.724304,1.8680748,0.57801974,-0.03501063,-0.008325102,-0.14915407,0.2189284,0.3773385,0.008004123,0.010489854,0.037776098,0.8741678,0.41922784,7.4393907,1.4696383,-0.08506598,191.30101,50.217297,0.23937537,0.2643548,0.126938,0.09791718,inf,inf,inf,inf,1,1,1,1,4,5,2,2,3,1,1,1,0,0,0
785707475,785704357,743568282,43.781802299999995,-79.4665002,-0.2020384,0.33896968,-49.64097,1.8680748,0.57801974,-0.03501063,-0.035021145,-0.13502432,0.9512382,1.1163154,0.008004123,0.010489854,0.037776098,-0.18933892,-0.13730429,8.126159,1.4967546,-0.08506598,191.30101,50.13396,0.24804242,0.26968908,0.12961514,0.09977312,inf,inf,inf,inf,1,1,1,1,4,5,2,2,3,1,1,1,0,0,0
785806971,785803538,743568282,43.781802299999995,-79.4665002,-0.20309815,0.3232295,-49.49484,1.8680748,0.57801974,-0.03501063,-0.050873753,-0.1147286,1.6651691,1.8268979,0.008004123,0.010489854,0.037776098,-0.069272116,-0.082065225,6.088296,1.5172691,-0.08506598,191.30101,49.98783,0.23926415,0.26478586,0.12293611,0.09798165,inf,inf,inf,inf,1,1,1,1,4,5,2,2,3,1,1,1,0,0,0
785904425,785902721,743568282,43.781802299999995,-79.4665002,-0.20583765,0.3093816,-49.284645,1.8680748,0.57801974,-0.03501063,-0.062681206,-0.0942493,2.407152,2.5582862,0.008004123,0.010489854,0.037776098,2.5634694,0.99523675,6.9321737,1.532074,-0.08506598,191.30101,49.777637,0.2477151,0.27015194,0.12473813,0.09984775,inf,inf,inf,inf,1,1,1,1,4,5,2,2,3,1,1,1,0,0,0
786004733,786001935,743568282,43.781802299999995,-79.4665002,-0.21113104,0.2962032,-49.020576,1.8680748,0.57801974,-0.03501063,-0.07765174,-0.07727935,3.097963,3.2232287,0.008004123,0.010489854,0.037776098,-0.70904154,0.21662886,9.817654,1.5417295,-0.08506598,191.30101,49.51357,0.23890151,0.26442283,0.11866678,0.097890384,inf,inf,inf,inf,1,1,1,1,4,5,2,2,3,1,1,1,0,0,0
786111834,786110102,743568282,43.781802299999995,-79.4665002,-0.21898767,0.2848704,-48.666576,1.8680748,0.57801974,-0.03501063,-0.08309014,-0.0497028,3.813578,3.904518,0.008004123,0.010489854,0.037776098,0.20872606,0.23384076,7.5697346,1.5492263,-0.08506598,191.30101,49.15957,0.24789247,0.2704141,0.12085356,0.0999528,inf,inf,inf,inf,1,1,1,1,4,5,2,2,3,1,1,1,0,0,0
786202031,786200268,743568282,43.781802299999995,-79.4665002,-0.22645561,0.27542236,-48.328777,1.8680748,0.57801974,-0.03501063,-0.088194564,-0.040432535,4.3942657,4.444085,0.008004123,0.010489854,0.037776098,-0.77778196,-0.62329835,8.807925,1.5536168,-0.08506598,191.30101,48.82177,0.23854154,0.26411927,0.11539843,0.097835205,inf,inf,inf,inf,1,1,1,1,4,5,2,2,3,1,1,1,0,0,0
786311324,786308467,743568282,43.781802299999995,-79.4665002,-0.23570232,0.26704696,-47.859245,1.8680748,0.57801974,-0.03501063,-0.083453156,-0.019651726,5.0227184,5.028541,0.008004123,0.010489854,0.037776098,1.1760573,0.27660465,4.441063,1.5552441,-0.08506598,191.30101,48.352238,0.2473279,0.2700965,0.1178077,0.09989551,inf,inf,inf,inf,1,1,1,1,4,5,2,2,3,1,1,1,0,0,0
786409453,786407650,743568282,43.781802299999995,-79.4665002,-0.2455128,0.25858226,-47.380737,1.8680748,0.57801974,-0.03501063,-0.091262475,-0.011586727,5.5815654,5.5405574,0.008004123,0.010489854,0.037776098,-1.2676903,-0.08601595,5.3724647,1.5561025,-0.08506598,191.30101,47.87373,0.23879732,0.26444635,0.11321639,0.09798204,inf,inf,inf,inf,1,1,1,1,4,5,2,2,3,1,1,1,0,0,0
786509162,786506832,743568282,43.781802299999995,-79.4665002,-0.25559863,0.25176397,-46.843258,1.8680748,0.57801974,-0.03501063,-0.09114731,-0.0072545707,6.1269054,6.0485606,0.008004123,0.010489854,0.037776098,-0.17743473,0.2777252,1.6728239,1.5580682,-0.08506598,191.30101,47.33625,0.24671704,0.26979396,0.11566059,0.09984577,inf,inf,inf,inf,1,1,1,1,4,5,2,2,3,1,1,1,0,0,0
786607664,786606014,743568282,43.781802299999995,-79.4665002,-0.26660645,0.24200346,-46.25957,1.8680748,0.57801974,-0.03501063,-0.09731168,-0.009085636,6.647489,6.5289874,0.008004123,0.010489854,0.037776098,-0.8658848,-0.014606622,3.4395244,1.5614451,-0.08506598,191.30101,46.752563,0.23832549,0.26416656,0.11145582,0.09793854,inf,inf,inf,inf,1,1,1,1,4,5,2,2,3,1,1,1,0,0,0
786707033,786705197,743568282,43.781802299999995,-79.4665002,-0.2775851,0.23346247,-45.621796,1.8680748,0.57801974,-0.03501063,-0.094234,-0.012113322,7.127938,6.979101,0.008004123,0.010489854,0.037776098,0.21945141,0.38524464,2.4623542,1.5657811,-0.08506598,191.30101,46.114788,0.24612264,0.2695055,0.11404795,0.09980112,inf,inf,inf,inf,1,1,1,1,4,5,2,2,3,1,1,1,0,0,0
786807040,786804379,743568282,43.781802299999995,-79.4665002,-0.28766158,0.2233975,-44.940544,1.8680748,0.57801974,-0.03501063,-0.10987068,-0.018898435,7.5365567,7.36047,0.008004123,0.010489854,0.037776098,0.1980522,0.43864825,4.141154,1.5707637,-0.08506598,191.30101,45.433537,0.23782754,0.26464966,0.11027475,0.09803617,inf,inf,inf,inf,1,1,1,1,4,5,2,2,3,1,1,1,0,0,0
786905445,786903562,743568282,43.781802299999995,-79.4665002,-0.29851034,0.21411555,-44.219734,1.8680748,0.57801974,-0.03501063,-0.10481263,-0.027404375,7.8621736,7.6650105,0.008004123,0.010489854,0.037776098,2.189091,0.57308894,1.2261866,1.5724071,-0.08506598,191.30101,44.712727,0.24554104,0.2700231,0.11323235,0.09990799,inf,inf,inf,inf,1,1,1,1,4,5,2,2,3,1,1,1,0,0,0
787006104,787002745,743568282,43.781802299999995,-79.4665002,-0.30936787,0.2050043,-43.465153,1.8680748,0.57801974,-0.03501063,-0.1125944,-0.034855798,8.23019,8.01356,0.008004123,0.010489854,0.037776098,0.42124036,0.008082296,2.9099052,1.572022,-0.08506598,191.30101,43.958145,0.23726755,0.26435384,0.10984832,0.097978115,inf,inf,inf,inf,1,1,1,1,4,5,2,2,3,1,1,1,0,0,0
787112679,787110944,743568282,43.781802299999995,-79.4665002,-0.32114702,0.19577599,-42.601322,1.8680748,0.57801974,-0.03501063,-0.10467253,-0.04566794,8.575894,8.34243,0.008004123,0.010489854,0.037776098,0.7000287,-0.19030982,2.495138,1.5734652,-0.08506598,191.30101,43.094315,0.2456521,0.27035576,0.11321873,0.100045584,inf,inf,inf,inf,1,1,1,1,4,5,2,2,3,1,1,1,0,0,0
787202987,787201109,743568282,43.781802299999995,-79.4665002,-0.32802397,0.18525457,-41.84773,1.8680748,0.57801974,-0.03501063,-0.0964796,-0.055706855,8.814558,8.5755825,0.008004123,0.010489854,0.037776098,1.2158899,0.3007803,2.9696112,1.5743022,-0.08506598,191.30101,42.34072,0.23675674,0.2640677,0.10968174,0.097925425,inf,inf,inf,inf,1,1,1,1,4,5,2,2,3,1,1,1,0,0,0
787311217,787309308,743568282,43.781802299999995,-79.4665002,-0.33538595,0.17270282,-40.920296,1.8680748,0.57801974,-0.03501063,-0.08261619,-0.07132115,9.021275,8.7756,0.008004123,0.010489854,0.037776098,-0.25176293,-0.7404572,4.4688287,1.574684,-0.08506598,191.30101,41.41329,0.24511646,0.2700594,0.11333632,0.09999263,inf,inf,inf,inf,1,1,1,1,4,5,2,2,3,1,1,1,0,0,0
787410124,787408491,743568282,43.781802299999995,-79.4665002,-0.33810526,0.1581218,-40.039387,1.8680748,0.57801974,-0.03501063,-0.06939288,-0.07977211,9.137184,8.900782,0.008004123,0.010489854,0.037776098,-2.0201182,-0.74354506,1.9330579,1.574367,-0.08506598,191.30101,40.53238,0.23694314,0.26441455,0.110545374,0.09807627,inf,inf,inf,inf,1,1,1,1,4,5,2,2,3,1,1,1,0,0,0
787509325,787507673,743568282,43.781802299999995,-79.4665002,-0.33963674,0.14331003,-39.15124,1.8680748,0.57801974,-0.03501063,-0.046899203,-0.09964025,9.239654,9.0078,0.008004123,0.010489854,0.037776098,-0.97026193,-0.3560106,0.9274056,1.57425,-0.08506598,191.30101,39.644234,0.24464978,0.26977208,0.114283346,0.09994546,inf,inf,inf,inf,1,1,1,1,4,5,2,2,3,1,1,1,0,0,0
787608428,787606856,743568282,43.781802299999995,-79.4665002,-0.3365505,0.12725843,-38.22996,1.8680748,0.57801974,-0.03501063,-0.029986368,-0.11785486,9.374448,9.167005,0.008004123,0.010489854,0.037776098,-2.0003033,-2.001337,4.2771854,1.5735445,-0.08506598,191.30101,38.722954,0.23647153,0.26413828,0.111671545,0.09803495,inf,inf,inf,inf,1,1,1,1,4,5,2,2,3,1,1,1,0,0,0
787708022,787706038,743568282,43.781802299999995,-79.4665002,-0.33362728,0.11082377,-37.303856,1.8680748,0.57801974,-0.03501063,-0.019248378,-0.13301235,9.386722,9.197693,0.008004123,0.010489854,0.037776098,1.0059927,-0.0018644723,-0.57749015,1.5723199,-0.08506598,191.30101,37.79685,0.24422699,0.26948708,0.115539245,0.09990411,inf,inf,inf,inf,1,1,1,1,4,5,2,2,3,1,1,1,0,0,0
787806983,787805222,743568282,43.781802299999995,-79.4665002,-0.3291907,0.09357791,-36.353527,1.8680748,0.57801974,-0.03501063,-0.006224949,-0.14184375,9.438944,9.287447,0.008004123,0.010489854,0.037776098,1.2383062,0.6574703,-0.6740678,1.5721391,-0.08506598,191.30101,36.84652,0.23595288,0.26459286,0.113099694,0.098111875,inf,inf,inf,inf,1,1,1,1,4,5,2,2,3,1,1,1,0,0,0
787906377,787904405,743568282,43.781802299999995,-79.4665002,-0.3246851,0.07669025,-35.401463,1.8680748,0.57801974,-0.03501063,-0.0037754087,-0.14929873,9.511899,9.388191,0.008004123,0.010489854,0.037776098,-2.6095366,-0.8894516,1.8605639,1.5729164,-0.08506598,191.30101,35.894455,0.24377578,0.26997778,0.11732427,0.09999149,inf,inf,inf,inf,1,1,1,1,4,5,2,2,3,1,1,1,0,0,0
788006934,788003586,743568282,43.781802299999995,-79.4665002,-0.31510624,0.058397185,-34.420242,1.8680748,0.57801974,-0.03501063,0.02706992,-0.15238911,9.543717,9.46869,0.008004123,0.010489854,0.037776098,2.8554523,0.94867903,-3.0116382,1.5704609,-0.08506598,191.30101,34.913235,0.23552899,0.26430097,0.11457141,0.0980563,inf,inf,inf,inf,1,1,1,1,4,5,2,2,3,1,1,1,0,0,0
788104653,788102774,743568282,43.781802299999995,-79.4665002,-0.3047917,0.04022151,-33.44265,1.8680748,0.57801974,-0.03501063,0.035887577,-0.15706417,9.598907,9.5586605,0.008004123,0.010489854,0.037776098,1.0175724,-0.86066985,1.1555997,1.5693136,-0.08506598,191.30101,33.935642,0.24342144,0.2696722,0.11904497,0.09993521,inf,inf,inf,inf,1,1,1,1,4,5,2,2,3,1,1,1,0,0,0
788212960,788210967,743568282,43.781802299999995,-79.4665002,-0.2912085,0.020610312,-32.35869,1.8680748,0.57801974,-0.03501063,0.037037842,-0.16639833,9.625113,9.632622,0.008004123,0.010489854,0.037776098,-1.5748776,-2.4508717,5.387045,1.5669065,-0.08506598,191.30101,32.85168,0.23568621,0.26455352,0.11654839,0.098155245,inf,inf,inf,inf,1,1,1,1,4,5,2,2,3,1,1,1,0,0,0
788303546,788301132,743568282,43.781802299999995,-79.4665002,-0.2797401,0.0049790544,-31.458616,1.8680748,0.57801974,-0.03501063,0.04139239,-0.16068108,9.558539,9.599047,0.008004123,0.010489854,0.037776098,0.24260695,2.0699687,-3.7983856,1.5664282,-0.08506598,191.30101,31.95161,0.24293952,0.2692931,0.12069839,0.099833705,inf,inf,inf,inf,1,1,1,1,4,5,2,2,3,1,1,1,0,0,0
788411276,788409331,743568282,43.781802299999995,-79.4665002,-0.26366338,-0.014558403,-30.354424,1.8680748,0.57801974,-0.03501063,0.05605236,-0.16248736,9.586504,9.687779,0.008004123,0.010489854,0.037776098,2.3977501,0.38148457,-2.4747036,1.5663221,-0.08506598,191.30101,30.847418,0.2354053,0.26428717,0.11864806,0.098113485,inf,inf,inf,inf,1,1,1,1,4,5,2,2,3,1,1,1,0,0,0
788510351,788508514,743568282,43.781802299999995,-79.4665002,-0.2505702,-0.0322032,-29.355299,1.8680748,0.57801974,-0.03501063,0.04867217,-0.1591622,9.608064,9.742461,0.008004123,0.010489854,0.037776098,-0.3876567,0.6759641,0.29404765,1.5651082,-0.08506598,191.30101,29.848293,0.24351127,0.26965213,0.12334468,0.099985555,inf,inf,inf,inf,1,1,1,1,4,5,2,2,3,1,1,1,0,0,0
788609325,788607696,743568282,43.781802299999995,-79.4665002,-0.23421937,-0.05099447,-28.33591,1.8680748,0.57801974,-0.03501063,0.04871427,-0.15311538,9.585846,9.771032,0.008004123,0.010489854,0.037776098,-1.1494915,1.9847314,-3.29374,1.5647613,-0.08506598,191.30101,28.828905,0.23512499,0.26399052,0.12035351,0.09804949,inf,inf,inf,inf,1,1,1,1,4,5,2,2,3,1,1,1,0,0,0
