timestamp,timestamp_sample,ref_timestamp,ref_lat,ref_lon,x,y,z,delta_xy[0],delta_xy[1],delta_z,vx,vy,vz,z_deriv,delta_vxy[0],delta_vxy[1],delta_vz,ax,ay,az,heading,delta_heading,ref_alt,dist_bottom,eph,epv,evh,evv,vxy_max,vz_max,hagl_min,hagl_max,xy_valid,z_valid,v_xy_valid,v_z_valid,xy_reset_counter,z_reset_counter,vxy_reset_counter,vz_reset_counter,heading_reset_counter,heading_good_for_control,xy_global,z_global,dist_bottom_valid,dist_bottom_sensor_bitfield,dead_reckoning
431385995,431384310,423422529,43.781866099999995,-79.4664899,0.22435276,0.015306067,0.6831787,-0.25574833,0.008028043,2.2460022,0.02103411,0.008113401,0.098808765,0.055296756,-0.005967029,0.0119490735,-0.037355017,0.09491635,-0.016760923,-0.049840126,1.5626074,0.080786,202.30101,0.08928001,0.3409166,0.29385525,0.13853338,0.10128315,inf,inf,inf,inf,1,1,1,1,10,13,2,2,3,0,1,1,0,0,0
431476138,431474474,423422529,43.781866099999995,-79.4664899,0.22471589,0.013575697,0.6890637,-0.25574833,0.008028043,2.2460022,0.022007294,0.007264686,0.10073595,0.05849345,-0.005967029,0.0119490735,-0.037355017,0.08905666,0.06448998,-0.2109028,1.5626209,0.080786,202.30101,0.09081733,0.3485052,0.2991665,0.14257458,0.1030473,inf,inf,inf,inf,1,1,1,1,10,13,2,2,3,0,1,1,0,0,0
431584514,431582670,423422529,43.781866099999995,-79.4664899,0.22753221,0.012967775,0.6943462,-0.25574833,0.008028043,2.2460022,0.021689413,0.0068491185,0.09920029,0.05653913,-0.005967029,0.0119490735,-0.037355017,0.29135543,0.083283715,0.10507469,1.5626782,0.080786,202.30101,0.08710694,0.34090695,0.29355642,0.13849689,0.10122658,inf,inf,inf,inf,1,1,1,1,10,13,2,2,3,0,1,1,0,0,0
431683379,431681854,423422529,43.781866099999995,-79.4664899,0.22999144,0.012773522,0.6999033,-0.25574833,0.008028043,2.2460022,0.021372883,0.0064496533,0.09833572,0.056107577,-0.005967029,0.0119490735,-0.037355017,0.10060628,0.2244507,0.18174277,1.5627196,0.080786,202.30101,0.08940047,0.34927917,0.29950637,0.14294678,0.10318384,inf,inf,inf,inf,1,1,1,1,10,13,2,2,3,0,1,1,0,0,0
431782484,431781038,423422529,43.781866099999995,-79.4664899,0.23434861,0.012832979,0.7046305,-0.25574833,0.008028043,2.2460022,0.0211384,0.00529916,0.09677153,0.054308813,-0.005967029,0.0119490735,-0.037355017,-0.0054648835,-0.032147903,0.34208846,1.5626662,0.080786,202.30101,0.08889097,0.34084144,0.29427403,0.13842337,0.10132255,inf,inf,inf,inf,1,1,1,1,10,13,2,2,3,0,1,1,0,0,0
431881713,431880222,423422529,43.781866099999995,-79.4664899,0.23830739,0.012968896,0.71029866,-0.25574833,0.008028043,2.2460022,0.023654696,0.005025044,0.10059735,0.0587119,-0.005967029,0.0119490735,-0.037355017,-0.40760466,-0.15548424,-0.18184336,1.562569,0.080786,202.30101,0.08999318,0.34921,0.29917464,0.14284816,0.103107266,inf,inf,inf,inf,1,1,1,1,10,13,2,2,3,0,1,1,0,0,0
431981254,431979406,423422529,43.781866099999995,-79.4664899,0.24364348,0.012574398,0.7155664,-0.25574833,0.008028043,2.2460022,0.02659281,0.005699064,0.09813772,0.056258723,-0.005967029,0.0119490735,-0.037355017,0.25278002,0.09968434,0.07056552,1.5626382,0.080786,202.30101,0.089096546,0.3407996,0.2939653,0.13831168,0.101253256,inf,inf,inf,inf,1,1,1,1,10,13,2,2,3,0,1,1,0,0,0
432080211,432078605,423422529,43.781866099999995,-79.4664899,0.24831788,0.012354775,0.72131485,-0.25574833,0.008028043,2.2460022,0.027689306,0.0052788467,0.09873073,0.057319555,-0.005967029,0.0119490735,-0.037355017,0.21744858,0.48433018,-0.034212142,1.5625553,0.080786,202.30101,0.09002876,0.34916463,0.29885504,0.14275944,0.10303546,inf,inf,inf,inf,1,1,1,1,10,13,2,2,3,0,1,1,0,0,0
432180673,432177775,423422529,43.781866099999995,-79.4664899,0.25394803,0.011424964,0.7278956,-0.25574833,0.008028043,2.2460022,0.028729228,0.005050595,0.09705038,0.05701766,-0.005967029,0.0119490735,-0.037355017,0.06559543,-0.09815726,0.7733691,1.5624563,0.080786,202.30101,0.09307009,0.3407799,0.29366758,0.1382405,0.101186946,inf,inf,inf,inf,1,1,1,1,10,13,2,2,3,0,1,1,0,0,0
432279557,432276960,423422529,43.781866099999995,-79.4664899,0.2588173,0.010800213,0.73451966,-0.25574833,0.008028043,2.2460022,0.02834384,0.0021623687,0.10084415,0.06225797,-0.005967029,0.0119490735,-0.037355017,-0.54187745,-0.5901679,1.2493321,1.5622983,0.080786,202.30101,0.09299064,0.34914282,0.29854652,0.1426892,0.10296684,inf,inf,inf,inf,1,1,1,1,10,13,2,2,3,0,1,1,0,0,0
432387130,432385158,423422529,43.781866099999995,-79.4664899,0.2639658,0.011179458,0.7402688,-0.25574833,0.008028043,2.2460022,0.032400794,0.0022530013,0.09200314,0.053409234,-0.005967029,0.0119490735,-0.037355017,-0.21303345,0.47087657,0.47352013,1.5622123,0.080786,202.30101,0.0889954,0.34144378,0.2939818,0.13852033,0.10129834,inf,inf,inf,inf,1,1,1,1,10,13,2,2,3,0,1,1,0,0,0
432477081,432475327,423422529,43.781866099999995,-79.4664899,0.26786342,0.011481656,0.74463886,-0.25574833,0.008028043,2.2460022,0.035617907,-0.0010836734,0.08702936,0.048196852,-0.005967029,0.0119490735,-0.037355017,-0.10216192,-0.28890875,-1.3963802,1.5620966,0.080786,202.30101,0.089848876,0.34905893,0.29929653,0.14254493,0.10306099,inf,inf,inf,inf,1,1,1,1,10,13,2,2,3,0,1,1,0,0,0
432585159,432583527,423422529,43.781866099999995,-79.4664899,0.27173123,0.010136459,0.74861103,-0.25574833,0.008028043,2.2460022,0.02786911,-0.0022644538,0.080589704,0.04062964,-0.005967029,0.0119490735,-0.037355017,0.4236168,0.7116493,-2.2732024,1.5619601,0.080786,202.30101,0.08909547,0.34139124,0.2936789,0.13841338,0.1012209,inf,inf,inf,inf,1,1,1,1,10,13,2,2,3,0,1,1,0,0,0
432684183,432682711,423422529,43.781866099999995,-79.4664899,0.27468973,0.008602847,0.752729,-0.25574833,0.008028043,2.2460022,0.032934904,-0.009153018,0.08548174,0.045461733,-0.005967029,0.0119490735,-0.037355017,1.1867447,0.4162895,-1.417958,1.5618948,0.080786,202.30101,0.091616035,0.34978408,0.29963058,0.14286235,0.10317666,inf,inf,inf,inf,1,1,1,1,10,13,2,2,3,0,1,1,0,0,0
432783749,432781896,423422529,43.781866099999995,-79.4664899,0.27781183,0.00731309,0.75729597,-0.25574833,0.008028043,2.2460022,0.027988805,-0.015875947,0.093102485,0.053157296,-0.005967029,0.0119490735,-0.037355017,-0.20844357,-0.68574667,5.1646786,1.5615618,0.080786,202.30101,0.09155929,0.34135932,0.29441267,0.13829502,0.10131644,inf,inf,inf,inf,1,1,1,1,10,13,2,2,3,0,1,1,0,0,0
432883012,432881082,423422529,43.781866099999995,-79.4664899,0.28102624,0.006298063,0.7616425,-0.25574833,0.008028043,2.2460022,0.033811115,-0.004947106,0.09391776,0.053576246,-0.005967029,0.0119490735,-0.037355017,-0.7231676,-0.40127605,-1.3937458,1.5612618,0.080786,202.30101,0.0898968,0.3497439,0.2993177,0.1427022,0.10310108,inf,inf,inf,inf,1,1,1,1,10,13,2,2,3,0,1,1,0,0,0
432981963,432980262,423422529,43.781866099999995,-79.4664899,0.2853784,0.0069617904,0.7653535,-0.25574833,0.008028043,2.2460022,0.030158075,-0.009243899,0.09734872,0.055635158,-0.005967029,0.0119490735,-0.037355017,-2.0904672,-0.7502443,-0.7407571,1.5606349,0.080786,202.30101,0.08837819,0.34132633,0.2941296,0.13810885,0.1012502,inf,inf,inf,inf,1,1,1,1,10,13,2,2,3,0,1,1,0,0,0
433082307,433079447,423422529,43.781866099999995,-79.4664899,0.28946707,0.007349012,0.76994807,-0.25574833,0.008028043,2.2460022,0.032464586,-0.011658075,0.08428913,0.04260355,-0.005967029,0.0119490735,-0.037355017,-1.1465274,-0.8043871,0.28290957,1.5600677,0.080786,202.30101,0.09212458,0.34970453,0.29901832,0.14248465,0.10303237,inf,inf,inf,inf,1,1,1,1,10,13,2,2,3,0,1,1,0,0,0
433180607,433178633,423422529,43.781866099999995,-79.4664899,0.29243597,0.007421974,0.7721496,-0.25574833,0.008028043,2.2460022,0.027214345,-0.015705258,0.08972175,0.046700574,-0.005967029,0.0119490735,-0.037355017,-2.7982996,-1.506833,6.097515,1.559181,0.080786,202.30101,0.09085089,0.34131297,0.2938545,0.13807291,0.10119136,inf,inf,inf,inf,1,1,1,1,10,13,2,2,3,0,1,1,0,0,0
433280699,433277815,423422529,43.781866099999995,-79.4664899,0.29484153,0.0068671755,0.7728321,-0.25574833,0.008028043,2.2460022,0.026663207,-0.019599944,0.057373285,0.0131705,-0.005967029,0.0119490735,-0.037355017,-0.7723257,-0.678384,2.335078,1.5586551,0.080786,202.30101,0.0917089,0.34968778,0.29873157,0.14257757,0.10297591,inf,inf,inf,inf,1,1,1,1,10,13,2,2,3,0,1,1,0,0,0
433378722,433376998,423422529,43.781866099999995,-79.4664899,0.29694128,0.006185346,0.77026033,-0.25574833,0.008028043,2.2460022,0.0053678364,-0.026275484,0.038450975,-0.0080816755,-0.005967029,0.0119490735,-0.037355017,-1.9660057,0.37653005,0.34812722,1.55888,0.080786,202.30101,0.09428066,0.3412613,0.2935487,0.138082,0.101122916,inf,inf,inf,inf,1,1,1,1,10,13,2,2,3,0,1,1,0,0,0
433486729,433485198,423422529,43.781866099999995,-79.4664899,0.296836,0.0034913325,0.7637012,-0.25574833,0.008028043,2.2460022,-0.0059565026,-0.053458214,-0.0145561,-0.06314969,-0.005967029,0.0119490735,-0.037355017,-0.735798,-0.7108914,2.981292,1.5656502,0.080786,202.30101,0.10083979,0.35041502,0.29905346,0.14291269,0.10309849,inf,inf,inf,inf,1,1,1,1,10,13,2,2,3,0,1,1,0,0,0
433576888,433575366,423422529,43.781866099999995,-79.4664899,0.29778758,0.00043856679,0.7504473,-0.25574833,0.008028043,2.2460022,-0.0257773,-0.07354804,-0.12677516,-0.17744775,-0.005967029,0.0119490735,-0.037355017,-0.669254,0.6650229,-4.790844,1.580003,0.080786,202.30101,0.11409372,0.34121516,0.2942862,0.1381549,0.10123397,inf,inf,inf,inf,1,1,1,1,10,13,2,2,3,0,1,1,0,0,0
433685377,433683566,423422529,43.781866099999995,-79.4664899,0.29397014,-0.008116831,0.71955454,-0.25574833,0.008028043,2.2460022,-0.084907584,-0.13076437,-0.26663637,-0.32046583,-0.005967029,0.0119490735,-0.037355017,-0.1732427,-1.3705884,3.3396502,1.5985937,0.080786,202.30101,0.14498645,0.35037568,0.29983166,0.14356382,0.10323051,inf,inf,inf,inf,1,1,1,1,10,13,2,2,3,0,1,1,0,0,0
433784436,433782750,423422529,43.781866099999995,-79.4664899,0.28530896,-0.019906288,0.6822491,-0.25574833,0.008028043,2.2460022,-0.14827499,-0.15649547,-0.39346117,-0.44633216,-0.005967029,0.0119490735,-0.037355017,1.3142624,-1.2579799,-0.1834755,1.6088411,0.080786,202.30101,0.18229187,0.3419325,0.29463807,0.1394761,0.101371326,inf,inf,inf,inf,1,1,1,1,10,13,2,2,3,0,1,1,0,0,0
433883704,433881936,423422529,43.781866099999995,-79.4664899,0.26998,-0.034274507,0.6321304,-0.25574833,0.008028043,2.2460022,-0.2148555,-0.16726528,-0.5780103,-0.6285342,-0.005967029,0.0119490735,-0.037355017,-1.7129054,-0.008292729,-4.231142,1.6135623,0.080786,202.30101,0.23241061,0.35037625,0.29954317,0.14442824,0.103160866,inf,inf,inf,inf,1,1,1,1,10,13,2,2,3,0,1,1,0,0,0
433982942,433981118,423422529,43.781866099999995,-79.4664899,0.25813696,-0.04542529,0.56590945,-0.25574833,0.008028043,2.2460022,-0.2522462,-0.1733218,-0.75339067,-0.7981862,-0.005967029,0.0119490735,-0.037355017,-1.6521119,0.79225254,-3.7016954,1.6161792,0.080786,202.30101,0.29863155,0.34183955,0.2943263,0.14056838,0.10128448,inf,inf,inf,inf,1,1,1,1,10,13,2,2,3,0,1,1,0,0,0
434082198,434080301,423422529,43.781866099999995,-79.4664899,0.24223265,-0.05796235,0.4836721,-0.25574833,0.008028043,2.2460022,-0.27709842,-0.18050611,-0.92023957,-0.95948267,-0.005967029,0.0119490735,-0.037355017,-0.874217,1.72489,-4.898171,1.6168534,0.080786,202.30101,0.38086888,0.35031256,0.2992092,0.1458611,0.103065185,inf,inf,inf,inf,1,1,1,1,10,13,2,2,3,0,1,1,0,0,0
434181257,434179485,423422529,43.781866099999995,-79.4664899,0.23286924,-0.069239594,0.38646182,-0.25574833,0.008028043,2.2460022,-0.28175724,-0.17956999,-1.0449125,-1.0798908,-0.005967029,0.0119490735,-0.037355017,1.3351555,-0.7179098,-0.99068135,1.615417,0.080786,202.30101,0.47807917,0.34180576,0.29403144,0.14172728,0.10122176,inf,inf,inf,inf,1,1,1,1,10,13,2,2,3,0,1,1,0,0,0
434281259,434278670,423422529,43.781866099999995,-79.4664899,0.21896754,-0.08148572,0.2796174,-0.25574833,0.008028043,2.2460022,-0.2932609,-0.16974759,-1.1021003,-1.1338558,-0.005967029,0.0119490735,-0.037355017,-1.6050111,0.9802695,-2.8233814,1.6137799,0.080786,202.30101,0.5849236,0.35030743,0.29890352,0.1465989,0.10300448,inf,inf,inf,inf,1,1,1,1,10,13,2,2,3,0,1,1,0,0,0
434380717,434377876,423422529,43.781866099999995,-79.4664899,0.20763391,-0.09527462,0.16467585,-0.25574833,0.008028043,2.2460022,-0.2948007,-0.16639909,-1.1105318,-1.1436564,-0.005967029,0.0119490735,-0.037355017,-0.95539635,-0.30814046,1.7287446,1.6114093,0.080786,202.30101,0.69986516,0.34170604,0.29369563,0.14178279,0.101144515,inf,inf,inf,inf,1,1,1,1,10,13,2,2,3,0,1,1,0,0,0
434487482,434486053,423422529,43.781866099999995,-79.4664899,0.19081484,-0.11085936,0.039849006,-0.25574833,0.008028043,2.2460022,-0.2904186,-0.16459438,-1.1034111,-1.1373918,-0.005967029,0.0119490735,-0.037355017,1.059729,-2.380847,4.6812654,1.6087127,0.080786,202.30101,0.824692,0.35099712,0.29920083,0.14656289,0.103114635,inf,inf,inf,inf,1,1,1,1,10,13,2,2,3,0,1,1,0,0,0
434577712,434576221,423422529,43.781866099999995,-79.4664899,0.17497875,-0.124624416,-0.067819364,-0.25574833,0.008028043,2.2460022,-0.28941867,-0.14445083,-1.0860163,-1.125868,-0.005967029,0.0119490735,-0.037355017,1.2892867,-0.53921324,1.5280432,1.6067576,0.080786,202.30101,0.93236035,0.34160268,0.29440364,0.14099617,0.101235144,inf,inf,inf,inf,1,1,1,1,10,13,2,2,3,0,1,1,0,0,0
434686029,434684422,423422529,43.781866099999995,-79.4664899,0.1528152,-0.13861477,-0.19157155,-0.25574833,0.008028043,2.2460022,-0.29525265,-0.10317331,-1.0589488,-1.1028466,-0.005967029,0.0119490735,-0.037355017,2.0727868,1.4599541,-2.5742297,1.6042477,0.080786,202.30101,1.0561125,0.3508628,0.29994625,0.14563143,0.10321742,inf,inf,inf,inf,1,1,1,1,10,13,2,2,3,0,1,1,0,0,0
434785049,434783605,423422529,43.781866099999995,-79.4664899,0.121254146,-0.14271827,-0.3106942,-0.25574833,0.008028043,2.2460022,-0.3063707,-0.07572329,-1.0041217,-1.0604383,-0.005967029,0.0119490735,-0.037355017,1.2401437,-0.8198093,3.2011092,1.6006392,0.080786,202.30101,1.1752352,0.34226647,0.2947202,0.14038835,0.101357,inf,inf,inf,inf,1,1,1,1,10,13,2,2,3,0,1,1,0,0,0
434884737,434882789,423422529,43.781866099999995,-79.4664899,0.08781827,-0.1447683,-0.42245418,-0.25574833,0.008028043,2.2460022,-0.3245988,-0.04093196,-0.9582964,-1.0235426,-0.005967029,0.0119490735,-0.037355017,1.9296516,1.6150761,-3.427409,1.5970291,0.080786,202.30101,1.2869952,0.35074374,0.29962334,0.14456327,0.10313823,inf,inf,inf,inf,1,1,1,1,10,13,2,2,3,0,1,1,0,0,0
434983606,434981973,423422529,43.781866099999995,-79.4664899,0.045482557,-0.14349782,-0.53308815,-0.25574833,0.008028043,2.2460022,-0.33477685,-0.019716905,-0.8440648,-0.9237188,-0.005967029,0.0119490735,-0.037355017,-2.9002018,0.9511358,2.9693055,1.5954717,0.080786,202.30101,1.3976291,0.342121,0.29438162,0.1392645,0.10126246,inf,inf,inf,inf,1,1,1,1,10,13,2,2,3,0,1,1,0,0,0
435082689,435081156,423422529,43.781866099999995,-79.4664899,0.0035072216,-0.13939363,-0.6335721,-0.25574833,0.008028043,2.2460022,-0.31248853,0.018122967,-0.78172165,-0.87096727,-0.005967029,0.0119490735,-0.037355017,1.2590294,-1.0074393,5.2653193,1.5949148,0.080786,202.30101,1.4981132,0.35054997,0.29926732,0.14332274,0.10304257,inf,inf,inf,inf,1,1,1,1,10,13,2,2,3,0,1,1,0,0,0
435181879,435180340,423422529,43.781866099999995,-79.4664899,-0.037411887,-0.13840257,-0.73379004,-0.25574833,0.008028043,2.2460022,-0.30810225,0.037937265,-0.72863317,-0.833437,-0.005967029,0.0119490735,-0.037355017,1.9342663,0.57272494,-1.6835802,1.594548,0.080786,202.30101,1.598331,0.34197542,0.294051,0.13818376,0.101176016,inf,inf,inf,inf,1,1,1,1,10,13,2,2,3,0,1,1,0,0,0
435281232,435279524,423422529,43.781866099999995,-79.4664899,-0.07496397,-0.13594827,-0.82286227,-0.25574833,0.008028043,2.2460022,-0.29661936,0.062065747,-0.651399,-0.76489925,-0.005967029,0.0119490735,-0.037355017,-2.61489,1.4095608,0.8093271,1.594324,0.080786,202.30101,1.6874032,0.35035866,0.29891956,0.14216422,0.10295166,inf,inf,inf,inf,1,1,1,1,10,13,2,2,3,0,1,1,0,0,0
435380545,435378708,423422529,43.781866099999995,-79.4664899,-0.09594595,-0.130107,-0.91396487,-0.25574833,0.008028043,2.2460022,-0.2539325,0.083736666,-0.5871048,-0.71683764,-0.005967029,0.0119490735,-0.037355017,-2.7965195,0.643871,2.0025918,1.6386333,0.05086324,202.30101,1.7785058,0.34179628,0.29371473,0.13514203,0.10108511,inf,inf,inf,inf,1,1,1,1,10,13,2,2,4,0,1,1,0,0,0
435479676,435477899,423422529,43.781866099999995,-79.4664899,-0.11238376,-0.12192944,-0.99358255,-0.25574833,0.008028043,2.2460022,-0.2118785,0.10494813,-0.53036004,-0.66911864,-0.005967029,0.0119490735,-0.037355017,2.2151084,1.7454708,-3.766003,1.6248536,0.05086324,202.30101,1.8581235,0.34997064,0.2985708,0.1388798,0.102853715,inf,inf,inf,inf,1,1,1,1,10,13,2,2,4,0,1,1,0,0,0
435578908,435577075,423422529,43.781866099999995,-79.4664899,-0.122880325,-0.11173383,-1.073645,-0.25574833,0.008028043,2.2460022,-0.18266754,0.11882715,-0.46189347,-0.6158909,-0.005967029,0.0119490735,-0.037355017,-0.10384224,1.486858,-0.6590635,1.6119909,0.05086324,202.30101,1.9381859,0.34159744,0.2944004,0.13616194,0.10116315,inf,inf,inf,inf,1,1,1,1,10,13,2,2,4,0,1,1,0,0,0
435677884,435676262,423422529,43.781866099999995,-79.4664899,-0.1320248,-0.10038637,-1.1435847,-0.25574833,0.008028043,2.2460022,-0.15523663,0.12170212,-0.39301038,-0.5562479,-0.005967029,0.0119490735,-0.037355017,-1.7580612,1.203759,1.4398938,1.6020678,0.05086324,202.30101,2.0081258,0.34954792,0.29929167,0.14379705,0.10294847,inf,inf,inf,inf,1,1,1,1,10,13,2,2,4,0,1,1,0,0,0
435786206,435784461,423422529,43.781866099999995,-79.4664899,-0.13824041,-0.08338584,-1.2207826,-0.25574833,0.008028043,2.2460022,-0.12379805,0.14507633,-0.35120383,-0.53071004,-0.005967029,0.0119490735,-0.037355017,-0.58728814,1.380528,-3.632052,1.5944296,0.05086324,202.30101,2.0853236,0.34192953,0.29463947,0.14439124,0.10126213,inf,inf,inf,inf,1,1,1,1,10,13,2,2,4,0,1,1,0,0,0
435876161,435874627,423422529,43.781866099999995,-79.4664899,-0.1419,-0.067745656,-1.2777733,-0.25574833,0.008028043,2.2460022,-0.09820188,0.1574785,-0.3270064,-0.51503146,-0.005967029,0.0119490735,-0.037355017,1.9411842,1.6597644,-5.3571515,1.5888588,0.05086324,202.30101,2.1423142,0.3490473,0.2988911,0.15410909,0.10285944,inf,inf,inf,inf,1,1,1,1,10,13,2,2,4,0,1,1,0,0,0
435984675,435982828,423422529,43.781866099999995,-79.4664899,-0.15548499,-0.048896547,-1.342322,-0.25574833,0.008028043,2.2460022,-0.083299585,0.16199432,-0.26395443,-0.4632037,-0.005967029,0.0119490735,-0.037355017,3.0464797,0.100829944,-2.9527771,1.5828681,0.05086324,202.30101,2.206863,0.341518,0.29425013,0.1555333,0.10118634,inf,inf,inf,inf,1,1,1,1,10,13,2,2,4,0,1,1,0,0,0
436083787,436082011,423422529,43.781866099999995,-79.4664899,-0.16950718,-0.031879812,-1.3905396,-0.25574833,0.008028043,2.2460022,-0.0753278,0.1495152,-0.19415152,-0.39649588,-0.005967029,0.0119490735,-0.037355017,-0.3077101,-0.520646,4.781748,1.5794411,0.05086324,202.30101,2.2550807,0.34934452,0.2991344,0.16752663,0.10297767,inf,inf,inf,inf,1,1,1,1,10,13,2,2,4,0,1,1,0,0,0
436182714,436181197,423422529,43.781866099999995,-79.4664899,-0.19094059,-0.017233977,-1.4340895,-0.25574833,0.008028043,2.2460022,-0.07948572,0.1507998,-0.1798798,-0.38433233,-0.005967029,0.0119490735,-0.037355017,-0.62888336,1.1439428,-2.2718692,1.5784556,0.05086324,202.30101,2.2986305,0.34108087,0.2938692,0.16674404,0.10111737,inf,inf,inf,inf,1,1,1,1,10,13,2,2,4,0,1,1,0,0,0
436282149,436280378,423422529,43.781866099999995,-79.4664899,-0.21027577,-0.0025179598,-1.4693843,-0.25574833,0.008028043,2.2460022,-0.05854654,0.16274978,-0.1651227,-0.3655432,-0.005967029,0.0119490735,-0.037355017,1.7011282,0.27469036,1.6483011,1.5787432,0.05086324,202.30101,2.3339252,0.34898487,0.2987327,0.17984907,0.10290959,inf,inf,inf,inf,1,1,1,1,10,13,2,2,4,0,1,1,0,0,0
436381486,436379562,423422529,43.781866099999995,-79.4664899,-0.23308352,0.0144078,-1.5010133,-0.25574833,0.008028043,2.2460022,-0.05870056,0.17124708,-0.12413871,-0.31988597,-0.005967029,0.0119490735,-0.037355017,-0.29708618,0.64477324,-1.2775135,1.5780843,0.05086324,202.30101,2.3655543,0.34070554,0.29349735,0.17686296,0.101062305,inf,inf,inf,inf,1,1,1,1,10,13,2,2,4,1,1,1,0,0,0
436481815,436478746,423422529,43.781866099999995,-79.4664899,-0.2522769,0.031116806,-1.5247428,-0.25574833,0.008028043,2.2460022,-0.034432523,0.15255983,-0.09237593,-0.27980995,-0.005967029,0.0119490735,-0.037355017,1.1338782,-1.6845034,3.3750558,1.5780814,0.05086324,202.30101,2.389284,0.3487741,0.29834986,0.19011554,0.10286114,inf,inf,inf,inf,1,1,1,1,10,13,2,2,4,1,1,1,0,0,0
436580293,436577933,423422529,43.781866099999995,-79.4664899,-0.27287155,0.04630207,-1.5450737,-0.25574833,0.008028043,2.2460022,-0.030005477,0.13969429,-0.08449779,-0.26348555,-0.005967029,0.0119490735,-0.037355017,-1.3893422,1.1237236,-2.5669482,1.5786091,0.05086324,202.30101,2.4096148,0.34040368,0.2941717,0.18462175,0.10118817,inf,inf,inf,inf,1,1,1,1,10,13,2,2,4,1,1,1,0,0,0
436679029,436677113,423422529,43.781866099999995,-79.4664899,-0.2887306,0.06100818,-1.5620793,-0.25574833,0.008028043,2.2460022,0.0048582116,0.14307708,-0.091032356,-0.25951737,-0.005967029,0.0119490735,-0.037355017,3.4121003,-1.7037724,-0.028521886,1.5801332,0.05086324,202.30101,2.4266202,0.34868467,0.2990658,0.19770052,0.10300045,inf,inf,inf,inf,1,1,1,1,10,13,2,2,4,1,1,1,0,0,0
436786929,436785313,423422529,43.781866099999995,-79.4664899,-0.3101285,0.07670324,-1.5757338,-0.25574833,0.008028043,2.2460022,0.030914558,0.1375638,-0.06984464,-0.22511044,-0.005967029,0.0119490735,-0.037355017,2.266846,-0.8599107,0.51024663,1.5802814,0.05086324,202.30101,2.4402747,0.34099397,0.29450196,0.19135857,0.101378396,inf,inf,inf,inf,1,1,1,1,10,13,2,2,4,1,1,1,0,0,0
436876991,436875480,423422529,43.781866099999995,-79.4664899,-0.3218111,0.08878289,-1.5845475,-0.25574833,0.008028043,2.2460022,0.05404247,0.12920237,-0.06863925,-0.21222581,-0.005967029,0.0119490735,-0.037355017,1.1358267,-0.67942524,2.2098024,1.5796976,0.05086324,202.30101,2.4490886,0.3487917,0.29875702,0.20274124,0.10299843,inf,inf,inf,inf,1,1,1,1,10,13,2,2,4,1,1,1,0,0,0
436985137,436983680,423422529,43.781866099999995,-79.4664899,-0.33842143,0.09912299,-1.5870137,-0.25574833,0.008028043,2.2460022,0.064176045,0.11170819,-0.0526648,-0.17595257,-0.005967029,0.0119490735,-0.037355017,-0.30066544,0.6783667,-1.5972574,1.5780016,0.05086324,202.30101,2.4515548,0.34091097,0.29418448,0.19416346,0.10135724,inf,inf,inf,inf,1,1,1,1,10,13,2,2,4,1,1,1,0,0,0
437084697,437082880,423422529,43.781866099999995,-79.4664899,-0.3481572,0.10693085,-1.5895869,-0.25574833,0.008028043,2.2460022,0.07992352,0.09806848,-0.06703336,-0.17410316,-0.005967029,0.0119490735,-0.037355017,-0.05789276,0.8703417,-3.7641323,1.5767366,0.05086324,202.30101,2.4541278,0.34976172,0.29907548,0.20606634,0.10317174,inf,inf,inf,inf,1,1,1,1,10,13,2,2,4,1,1,1,0,0,0
437183584,437182048,423422529,43.781866099999995,-79.4664899,-0.3560239,0.11064981,-1.5889493,-0.25574833,0.008028043,2.2460022,0.09872269,0.07893559,-0.06956737,-0.1581878,-0.005967029,0.0119490735,-0.037355017,-0.32958373,0.98204213,-0.9125569,1.5748141,0.05086324,202.30101,2.4534903,0.3408393,0.29385117,0.19483508,0.10131329,inf,inf,inf,inf,1,1,1,1,10,13,2,2,4,1,1,1,0,0,0
437282929,437281232,423422529,43.781866099999995,-79.4664899,-0.35825148,0.11298272,-1.5904719,-0.25574833,0.008028043,2.2460022,0.119212605,0.06529836,-0.08344946,-0.15693751,-0.005967029,0.0119490735,-0.037355017,-1.9908468,0.5296548,-0.18849282,1.5733676,0.05086324,202.30101,2.4550128,0.3498679,0.29872704,0.20606339,0.10312587,inf,inf,inf,inf,1,1,1,1,10,13,2,2,4,1,1,1,0,0,0
437382041,437380415,423422529,43.781866099999995,-79.4664899,-0.36131516,0.11195651,-1.5877259,-0.25574833,0.008028043,2.2460022,0.1356695,0.052467186,-0.09504218,-0.149655,-0.005967029,0.0119490735,-0.037355017,-1.1321653,0.9702964,-1.5967243,1.5744406,0.05086324,202.30101,2.452267,0.34087032,0.29356048,0.19433716,0.101292625,inf,inf,inf,inf,1,1,1,1,10,13,2,2,4,1,1,1,0,0,0
437481213,437479599,423422529,43.781866099999995,-79.4664899,-0.35851467,0.11195339,-1.5869944,-0.25574833,0.008028043,2.2460022,0.15510857,0.057955187,-0.09595724,-0.13615587,-0.005967029,0.0119490735,-0.037355017,0.3149445,1.655394,-6.227358,1.5753269,0.05086324,202.30101,2.4515355,0.35006016,0.2984232,0.2048131,0.103102356,inf,inf,inf,inf,1,1,1,1,10,13,2,2,4,1,1,1,0,0,0
437581884,437578783,423422529,43.781866099999995,-79.4664899,-0.34979302,0.110029824,-1.580524,-0.25574833,0.008028043,2.2460022,0.1781132,0.051736355,-0.099436834,-0.1213344,-0.005967029,0.0119490735,-0.037355017,-0.33690256,1.2428056,-4.2964015,1.5765232,0.05086324,202.30101,2.445065,0.34092292,0.29326385,0.1925121,0.10126984,inf,inf,inf,inf,1,1,1,1,10,13,2,2,4,1,1,1,0,0,0
437679714,437677967,423422529,43.781866099999995,-79.4664899,-0.33601704,0.10897517,-1.5789902,-0.25574833,0.008028043,2.2460022,0.19762732,0.04595396,-0.12303456,-0.13166724,-0.005967029,0.0119490735,-0.037355017,-1.713911,1.3592669,-3.232075,1.5786238,0.05086324,202.30101,2.4435313,0.3502328,0.29920095,0.20224646,0.10325897,inf,inf,inf,inf,1,1,1,1,10,13,2,2,4,1,1,1,0,0,0
437779103,437777150,423422529,43.781866099999995,-79.4664899,-0.32574245,0.10798265,-1.5737603,-0.25574833,0.008028043,2.2460022,0.20882423,0.0423322,-0.14559203,-0.13549337,-0.005967029,0.0119490735,-0.037355017,-1.6196647,0.46839204,-2.5989165,1.5806869,0.05086324,202.30101,2.4383013,0.34093386,0.29396412,0.19014052,0.101396166,inf,inf,inf,inf,1,1,1,1,10,13,2,2,4,1,1,1,0,0,0
437878108,437876334,423422529,43.781866099999995,-79.4664899,-0.3123852,0.108073525,-1.5725541,-0.25574833,0.008028043,2.2460022,0.21590762,0.046021648,-0.15284957,-0.12933561,-0.005967029,0.0119490735,-0.037355017,-0.6579045,1.9265096,-3.3286173,1.5815005,0.05086324,202.30101,2.4370952,0.3503217,0.2988565,0.19923998,0.10321147,inf,inf,inf,inf,1,1,1,1,10,13,2,2,4,1,1,1,0,0,0
437985995,437984537,423422529,43.781866099999995,-79.4664899,-0.29162234,0.10562075,-1.5659993,-0.25574833,0.008028043,2.2460022,0.24562623,0.036485188,-0.13934948,-0.09731183,-0.005967029,0.0119490735,-0.037355017,-2.213713,-0.71791124,3.1646643,1.5812368,0.05086324,202.30101,2.4305403,0.34176326,0.29427063,0.18781899,0.1015485,inf,inf,inf,inf,1,1,1,1,10,13,2,2,4,1,1,1,0,0,0
438085367,438083718,423422529,43.781866099999995,-79.4664899,-0.26849097,0.10435287,-1.5649786,-0.25574833,0.008028043,2.2460022,0.26449266,0.03778865,-0.16305864,-0.11009628,-0.005967029,0.0119490735,-0.037355017,-0.74337703,0.63198847,1.695394,1.5814607,0.05086324,202.30101,2.4295197,0.35128486,0.29917252,0.19629392,0.10336518,inf,inf,inf,inf,1,1,1,1,10,13,2,2,4,1,1,1,0,0,0
438184703,438182915,423422529,43.781866099999995,-79.4664899,-0.24069253,0.100649506,-1.5596986,-0.25574833,0.008028043,2.2460022,0.28510723,0.037430644,-0.18430111,-0.11469133,-0.005967029,0.0119490735,-0.037355017,0.19611298,-0.708294,4.3854513,1.5827533,0.05086324,202.30101,2.4242396,0.34176818,0.29395428,0.18459721,0.10150922,inf,inf,inf,inf,1,1,1,1,10,13,2,2,4,1,1,1,0,0,0
438283580,438282085,423422529,43.781866099999995,-79.4664899,-0.21034776,0.09867967,-1.5624833,-0.25574833,0.008028043,2.2460022,0.2885542,0.046126053,-0.20811218,-0.12927546,-0.005967029,0.0119490735,-0.037355017,-2.5310035,0.21006683,2.8186266,1.5836916,0.05086324,202.30101,2.4270244,0.35131103,0.29884714,0.19256693,0.103320226,inf,inf,inf,inf,1,1,1,1,10,13,2,2,4,1,1,1,0,0,0
438382941,438381268,423422529,43.781866099999995,-79.4664899,-0.18363225,0.097779274,-1.5587944,-0.25574833,0.008028043,2.2460022,0.27703178,0.045997296,-0.23028831,-0.13577394,-0.005967029,0.0119490735,-0.037355017,-1.4278884,1.1599069,-4.6172314,1.5839837,0.05086324,202.30101,2.4233353,0.34176153,0.2936424,0.18131728,0.10147253,inf,inf,inf,inf,1,1,1,1,10,13,2,2,4,1,1,1,0,0,0
438482306,438480452,423422529,43.781866099999995,-79.4664899,-0.1563644,0.097396575,-1.5619314,-0.25574833,0.008028043,2.2460022,0.28277007,0.04016294,-0.2599049,-0.15727869,-0.005967029,0.0119490735,-0.037355017,2.6883876,-2.1456735,-0.19069074,1.5848761,0.05086324,202.30101,2.4264724,0.35130605,0.29851723,0.18864912,0.103271775,inf,inf,inf,inf,1,1,1,1,10,13,2,2,4,1,1,1,0,0,0
438582622,438579635,423422529,43.781866099999995,-79.4664899,-0.12897615,0.09910057,-1.5631875,-0.25574833,0.008028043,2.2460022,0.2689657,0.044111542,-0.25565496,-0.14133418,-0.005967029,0.0119490735,-0.037355017,0.6046098,-1.8658067,5.2552886,1.586081,0.05086324,202.30101,2.4277284,0.34168696,0.29329288,0.17776553,0.1014071,inf,inf,inf,inf,1,1,1,1,10,13,2,2,4,1,1,1,0,0,0
438682102,438678819,423422529,43.781866099999995,-79.4664899,-0.10202532,0.10250774,-1.5714545,-0.25574833,0.008028043,2.2460022,0.24755792,0.06558313,-0.27872497,-0.1587704,-0.005967029,0.0119490735,-0.037355017,-2.8862987,0.5285522,1.1872236,1.5869659,0.05086324,202.30101,2.4359956,0.3512052,0.29924035,0.18483612,0.10339273,inf,inf,inf,inf,1,1,1,1,10,13,2,2,4,1,1,1,0,0,0
438779702,438778002,423422529,43.781866099999995,-79.4664899,-0.07636413,0.107380144,-1.5732411,-0.25574833,0.008028043,2.2460022,0.23307087,0.07211574,-0.28999022,-0.15818803,-0.005967029,0.0119490735,-0.037355017,1.039303,0.58421326,-3.8428795,1.5864061,0.05086324,202.30101,2.437782,0.3416732,0.29400635,0.17465591,0.10154307,inf,inf,inf,inf,1,1,1,1,10,13,2,2,4,1,1,1,0,0,0
438879206,438877186,423422529,43.781866099999995,-79.4664899,-0.05129714,0.11231576,-1.5817477,-0.25574833,0.008028043,2.2460022,0.22951984,0.060614947,-0.28617594,-0.15028745,-0.005967029,0.0119490735,-0.037355017,0.91394895,-0.7976918,3.2746046,1.5853826,0.05086324,202.30101,2.4462886,0.3511676,0.29891464,0.18111916,0.1033534,inf,inf,inf,inf,1,1,1,1,10,13,2,2,4,1,1,1,0,0,0
438978024,438976369,423422529,43.781866099999995,-79.4664899,-0.029509533,0.11856122,-1.5855658,-0.25574833,0.008028043,2.2460022,0.20767012,0.0716755,-0.3027983,-0.15706608,-0.005967029,0.0119490735,-0.037355017,-2.1551049,0.8559637,-1.1785841,1.5841486,0.05086324,202.30101,2.4501069,0.3415859,0.29367808,0.17128131,0.101489566,inf,inf,inf,inf,1,1,1,1,10,13,2,2,4,1,1,1,0,0,0
439086052,439084569,423422529,43.781866099999995,-79.4664899,-0.0072353175,0.1272605,-1.5971153,-0.25574833,0.008028043,2.2460022,0.20039855,0.07215038,-0.30389017,-0.15446848,-0.005967029,0.0119490735,-0.037355017,-0.52808434,-1.0537349,3.7531414,1.5831397,0.05086324,202.30101,2.4616563,0.3519327,0.29921886,0.1781625,0.10349831,inf,inf,inf,inf,1,1,1,1,10,13,2,2,4,1,1,1,0,0,0
439176274,439174736,423422529,43.781866099999995,-79.4664899,0.009987701,0.13680175,-1.5998917,-0.25574833,0.008028043,2.2460022,0.19012944,0.066118516,-0.30323774,-0.14476456,-0.005967029,0.0119490735,-0.037355017,2.3045301,-1.560277,4.6836596,1.5815868,0.05086324,202.30101,2.4644327,0.34150606,0.29336405,0.1681462,0.10144014,inf,inf,inf,inf,1,1,1,1,10,13,2,2,4,1,1,1,0,0,0
439284622,439282936,423422529,43.781866099999995,-79.4664899,0.029628478,0.14790964,-1.610455,-0.25574833,0.008028043,2.2460022,0.16310342,0.076035365,-0.31146762,-0.1503343,-0.005967029,0.0119490735,-0.037355017,2.2690012,-1.2470994,2.2759256,1.5786524,0.05086324,202.30101,2.474996,0.3517956,0.2988947,0.17471343,0.103445046,inf,inf,inf,inf,1,1,1,1,10,13,2,2,4,1,1,1,0,0,0
439383619,439382120,423422529,43.781866099999995,-79.4664899,0.04756269,0.16037647,-1.611998,-0.25574833,0.008028043,2.2460022,0.14330046,0.08968919,-0.26389557,-0.09394194,-0.005967029,0.0119490735,-0.037355017,-3.394015,1.2489094,3.1488454,1.5760776,0.05086324,202.30101,2.476539,0.3423188,0.29372728,0.16580918,0.10162183,inf,inf,inf,inf,1,1,1,1,10,13,2,2,4,1,1,1,0,0,0
439483195,439481303,423422529,43.781866099999995,-79.4664899,0.064202346,0.171945,-1.619152,-0.25574833,0.008028043,2.2460022,0.12629241,0.077869356,-0.25704697,-0.087296,-0.005967029,0.0119490735,-0.037355017,-0.62027,1.3718141,-4.826031,1.5735589,0.05086324,202.30101,2.483693,0.35173586,0.2986186,0.17155233,0.10344013,inf,inf,inf,inf,1,1,1,1,10,13,2,2,4,1,1,1,0,0,0
439582451,439580486,423422529,43.781866099999995,-79.4664899,0.07747649,0.18148659,-1.6200826,-0.25574833,0.008028043,2.2460022,0.114226714,0.06847316,-0.27346575,-0.098406725,-0.005967029,0.0119490735,-0.037355017,0.7924334,-0.18578334,-1.175947,1.5719969,0.05086324,202.30101,2.4846237,0.34222996,0.29345265,0.16281867,0.10158185,inf,inf,inf,inf,1,1,1,1,10,13,2,2,4,1,1,1,0,0,0
439681206,439679670,423422529,43.781866099999995,-79.4664899,0.08940254,0.18963127,-1.6278185,-0.25574833,0.008028043,2.2460022,0.10708227,0.04702446,-0.26143306,-0.08794324,-0.005967029,0.0119490735,-0.037355017,0.9279325,-1.2964969,3.6246939,1.5706608,0.05086324,202.30101,2.4923594,0.35158283,0.29941526,0.1684017,0.10357947,inf,inf,inf,inf,1,1,1,1,10,13,2,2,4,1,1,1,0,0,0
439781583,439778858,423422529,43.781866099999995,-79.4664899,0.09807213,0.19893068,-1.6299032,-0.25574833,0.008028043,2.2460022,0.08985161,0.045231692,-0.25188407,-0.073433824,-0.005967029,0.0119490735,-0.037355017,0.033189893,-0.55358356,4.6547527,1.5694853,0.05086324,202.30101,2.4944441,0.3420695,0.2941833,0.16020523,0.10170166,inf,inf,inf,inf,1,1,1,1,10,13,2,2,4,1,1,1,0,0,0
439879645,439878037,423422529,43.781866099999995,-79.4664899,0.10575583,0.20675202,-1.6373063,-0.25574833,0.008028043,2.2460022,0.0741957,0.03603245,-0.25992912,-0.08210481,-0.005967029,0.0119490735,-0.037355017,-0.43188518,0.2881966,2.34598,1.5685539,0.05086324,202.30101,2.5018473,0.3513519,0.29910728,0.16553716,0.103522785,inf,inf,inf,inf,1,1,1,1,10,13,2,2,4,1,1,1,0,0,0
439978725,439977220,423422529,43.781866099999995,-79.4664899,0.10891487,0.2167237,-1.641279,-0.25574833,0.008028043,2.2460022,0.055828728,0.021343522,-0.27304232,-0.09121508,-0.005967029,0.0119490735,-0.037355017,-1.322275,-1.0949075,3.8233914,1.5677227,0.05086324,202.30101,2.50582,0.3419148,0.29391372,0.15770613,0.10165499,inf,inf,inf,inf,1,1,1,1,10,13,2,2,4,1,1,1,0,0,0
440079073,440076409,423422529,43.781866099999995,-79.4664899,0.11111278,0.22491366,-1.6514822,-0.25574833,0.008028043,2.2460022,0.042927794,0.012990414,-0.29306865,-0.11288643,-0.005967029,0.0119490735,-0.037355017,0.026531823,-0.97678167,0.72215945,1.5672318,0.05086324,202.30101,2.5160232,0.35112837,0.29881826,0.16289411,0.103464134,inf,inf,inf,inf,1,1,1,1,10,13,2,2,4,1,1,1,0,0,0
440177364,440175588,423422529,43.781866099999995,-79.4664899,0.10541015,0.23335701,-1.6730102,-0.25574833,0.008028043,2.2460022,0.031803384,-0.03505504,-0.6612893,-0.476143,-0.005967029,0.0119490735,-0.037355017,-1.1210779,-0.524083,-5.000233,1.5679122,0.05086324,202.30101,2.5375512,0.34174258,0.2936436,0.15543549,0.101601996,inf,inf,inf,inf,1,1,1,1,10,13,2,2,4,1,1,1,0,0,0
440285297,440283789,423422529,43.781866099999995,-79.4664899,0.10076606,0.23413491,-1.7507396,-0.25574833,0.008028043,2.2460022,0.033436306,-0.10498192,-1.1626416,-0.97884345,-0.005967029,0.0119490735,-0.037355017,1.0724727,-1.5970832,-4.036701,1.572604,0.05086324,202.30101,2.6152806,0.35177258,0.29918557,0.16216475,0.1035907,inf,inf,inf,inf,1,1,1,1,10,13,2,2,4,1,1,1,0,0,0
440384570,440382972,423422529,43.781866099999995,-79.4664899,0.09303162,0.23095748,-1.8488743,-0.25574833,0.008028043,2.2460022,0.04277719,-0.16203916,-1.6322061,-1.4281071,-0.005967029,0.0119490735,-0.037355017,0.9425924,-0.9386717,-3.896434,1.5792918,0.05086324,202.30101,2.7134154,0.34237567,0.29400927,0.15619957,0.10171742,inf,inf,inf,inf,1,1,1,1,10,13,2,2,4,1,1,1,0,0,0
440483772,440482163,423422529,43.781866099999995,-79.4664899,0.08969193,0.22118858,-2.0035233,-0.25574833,0.008028043,2.2460022,0.06059661,-0.19189581,-2.0971837,-1.885355,-0.005967029,0.0119490735,-0.037355017,-0.4316709,0.029158324,-4.870668,1.5854682,0.05086324,202.30101,2.8680644,0.35161197,0.29891142,0.16279379,0.10350957,inf,inf,inf,inf,1,1,1,1,10,13,2,2,4,1,1,1,0,0,0
440583834,440581338,423422529,43.781866099999995,-79.4664899,0.090673216,0.21851495,-2.177594,-0.25574833,0.008028043,2.2460022,0.07265077,-0.19089028,-2.5439107,-2.2996385,-0.005967029,0.0119490735,-0.037355017,-0.078489736,0.59487385,-7.156172,1.5897956,0.05086324,202.30101,3.042135,0.34222293,0.2937526,0.1567985,0.10164661,inf,inf,inf,inf,1,1,1,1,10,13,2,2,4,1,1,1,0,0,0
440682866,440680521,423422529,43.781866099999995,-79.4664899,0.09471592,0.21318574,-2.4084127,-0.25574833,0.008028043,2.2460022,0.07515255,-0.17960112,-2.9639354,-2.7046907,-0.005967029,0.0119490735,-0.037355017,-0.31398776,0.13527766,-3.040044,1.593435,0.05086324,202.30101,3.2729537,0.3514661,0.2997234,0.16332471,0.103630036,inf,inf,inf,inf,1,1,1,1,10,13,2,2,4,1,1,1,0,0,0
440781148,440779705,423422529,43.781866099999995,-79.4664899,0.103984214,0.1986883,-2.6537144,-0.25574833,0.008028043,2.2460022,0.082364395,-0.18045078,-3.3393507,-3.0420845,-0.005967029,0.0119490735,-0.037355017,-0.40914196,0.99136555,-5.852702,1.5961487,0.05086324,202.30101,3.5182555,0.3420877,0.294544,0.15711045,0.10176868,inf,inf,inf,inf,1,1,1,1,10,13,2,2,4,1,1,1,0,0,0
440881426,440878891,423422529,43.781866099999995,-79.4664899,0.114352055,0.18285884,-2.9512205,-0.25574833,0.008028043,2.2460022,0.08893978,-0.17444994,-3.693698,-3.3789227,-0.005967029,0.0119490735,-0.037355017,0.61103946,-0.26228225,-4.8253226,1.597514,0.05086324,202.30101,3.8157616,0.35132286,0.29947367,0.16342346,0.10358309,inf,inf,inf,inf,1,1,1,1,10,13,2,2,4,1,1,1,0,0,0
440980490,440978076,423422529,43.781866099999995,-79.4664899,0.120872356,0.1667154,-3.2671058,-0.25574833,0.008028043,2.2460022,0.07395755,-0.16371432,-4.026532,-3.680112,-0.005967029,0.0119490735,-0.037355017,0.49851224,-0.52069634,-2.7595353,1.5974324,0.05086324,202.30101,4.1316466,0.3418973,0.29428014,0.15681402,0.101706244,inf,inf,inf,inf,1,1,1,1,10,13,2,2,4,1,1,1,0,0,0
441079148,441077257,423422529,43.781866099999995,-79.4664899,0.12634163,0.15095347,-3.6266582,-0.25574833,0.008028043,2.2460022,0.058429368,-0.15117128,-4.2958083,-3.9348323,-0.005967029,0.0119490735,-0.037355017,0.8723787,-0.6066642,-1.463271,1.5975167,0.05086324,202.30101,4.491199,0.35109958,0.2991938,0.1628703,0.10351399,inf,inf,inf,inf,1,1,1,1,10,13,2,2,4,1,1,1,0,0,0
441178164,441176438,423422529,43.781866099999995,-79.4664899,0.12960878,0.1326936,-3.9967825,-0.25574833,0.008028043,2.2460022,0.040404618,-0.13371015,-4.4650664,-4.08051,-0.005967029,0.0119490735,-0.037355017,0.302111,-0.0029295997,-2.6521616,1.5976019,0.05086324,202.30101,4.8613234,0.34174064,0.29402673,0.15596147,0.1016429,inf,inf,inf,inf,1,1,1,1,10,13,2,2,4,1,1,1,0,0,0
441277043,441275621,423422529,43.781866099999995,-79.4664899,0.13215697,0.11700662,-4.3946686,-0.25574833,0.008028043,2.2460022,0.025152303,-0.10169619,-4.5617185,-4.1703744,-0.005967029,0.0119490735,-0.037355017,-2.222573,0.9745005,-2.1279342,1.5977752,0.05086324,202.30101,5.2592096,0.35089055,0.29892427,0.16115615,0.103446305,inf,inf,inf,inf,1,1,1,1,10,13,2,2,4,1,1,1,0,0,0
441385569,441383841,423422529,43.781866099999995,-79.4664899,0.1301983,0.10593344,-4.8354077,-0.25574833,0.008028043,2.2460022,-0.00037188956,-0.05863359,-4.6369576,-4.235333,-0.005967029,0.0119490735,-0.037355017,-0.73750144,1.2571368,-0.9868694,1.5965263,0.05086324,202.30101,5.699949,0.34237793,0.2944078,0.15428789,0.10178891,inf,inf,inf,inf,1,1,1,1,10,13,2,2,4,1,1,1,0,0,0
441484513,441483004,423422529,43.781866099999995,-79.4664899,0.12621988,0.09983456,-5.2571816,-0.25574833,0.008028043,2.2460022,-0.028577847,-0.029281136,-4.668016,-4.27144,-0.005967029,0.0119490735,-0.037355017,1.5983493,-0.09966136,-0.08388823,1.5956535,0.05086324,202.30101,6.1217227,0.3515041,0.2993136,0.15901926,0.10360793,inf,inf,inf,inf,1,1,1,1,10,13,2,2,4,1,1,1,0,0,0
441584090,441582187,423422529,43.781866099999995,-79.4664899,0.11495143,0.09587331,-5.6849117,-0.25574833,0.008028043,2.2460022,-0.05587268,-0.0063808463,-4.676549,-4.2873664,-0.005967029,0.0119490735,-0.037355017,-1.5828508,0.294881,2.9811013,1.5937871,0.05086324,202.30101,6.549453,0.34221202,0.29416838,0.15175071,0.10175448,inf,inf,inf,inf,1,1,1,1,10,13,2,2,4,1,1,1,0,0,0
441683791,441681372,423422529,43.781866099999995,-79.4664899,0.10395968,0.09444483,-6.1245174,-0.25574833,0.008028043,2.2460022,-0.07229496,0.019251147,-4.689128,-4.317268,-0.005967029,0.0119490735,-0.037355017,-2.2562838,1.1920009,0.25115648,1.5894154,0.05086324,202.30101,6.9890585,0.35124803,0.29905906,0.15617602,0.10356252,inf,inf,inf,inf,1,1,1,1,10,13,2,2,4,1,1,1,0,0,0
441782201,441780554,423422529,43.781866099999995,-79.4664899,0.087044895,0.1004308,-6.570402,-0.25574833,0.008028043,2.2460022,-0.080486834,0.044379096,-4.6910114,-4.3392434,-0.005967029,0.0119490735,-0.037355017,-0.34735924,0.44499275,1.179736,1.5851616,0.05086324,202.30101,7.434943,0.34204397,0.2949754,0.14923938,0.1018829,inf,inf,inf,inf,1,1,1,1,10,13,2,2,4,1,1,1,0,0,0
441881150,441879737,423422529,43.781866099999995,-79.4664899,0.0715342,0.10851662,-7.0227313,-0.25574833,0.008028043,2.2460022,-0.084418796,0.06608555,-4.6862326,-4.3591723,-0.005967029,0.0119490735,-0.037355017,0.66797084,-1.1202798,1.1937807,1.5827612,0.05086324,202.30101,7.8872724,0.35098985,0.2999084,0.15340914,0.1037061,inf,inf,inf,inf,1,1,1,1,10,13,2,2,4,1,1,1,0,0,0
441981720,441978920,423422529,43.781866099999995,-79.4664899,0.05138141,0.12147998,-7.480213,-0.25574833,0.008028043,2.2460022,-0.07953886,0.084741525,-4.706292,-4.4062324,-0.005967029,0.0119490735,-0.037355017,-0.30767202,0.89290243,-2.2986817,1.5797582,0.05086324,202.30101,8.344754,0.34189096,0.29475045,0.1467444,0.10184539,inf,inf,inf,inf,1,1,1,1,10,13,2,2,4,1,1,1,0,0,0
442079606,442078103,423422529,43.781866099999995,-79.4664899,0.035602506,0.13385876,-7.941695,-0.25574833,0.008028043,2.2460022,-0.066274,0.076724455,-4.681534,-4.4089093,-0.005967029,0.0119490735,-0.037355017,-2.026595,0.9030007,-0.40257388,1.5740466,0.05086324,202.30101,8.806236,0.35074884,0.2996731,0.1508719,0.10365768,inf,inf,inf,inf,1,1,1,1,10,13,2,2,4,1,1,1,0,0,0
442179209,442177289,423422529,43.781866099999995,-79.4664899,0.013092495,0.14652844,-8.407803,-0.25574833,0.008028043,2.2460022,-0.06318208,0.035239346,-4.6906924,-4.4470344,-0.005967029,0.0119490735,-0.037355017,0.9987191,-1.5065556,2.0879924,1.5681734,0.05086324,202.30101,9.272344,0.34166923,0.29449522,0.14455172,0.10177604,inf,inf,inf,inf,1,1,1,1,10,13,2,2,4,1,1,1,0,0,0
442279577,442276470,423422529,43.781866099999995,-79.4664899,-0.007229167,0.15292946,-8.875999,-0.25574833,0.008028043,2.2460022,-0.073681206,-0.025427626,-4.7023907,-4.4859877,-0.005967029,0.0119490735,-0.037355017,-1.3391619,0.14897893,-1.1330367,1.5650653,0.05086324,202.30101,9.7405405,0.3504377,0.29939607,0.14849691,0.10355925,inf,inf,inf,inf,1,1,1,1,10,13,2,2,4,1,1,1,0,0,0
442386482,442384669,423422529,43.781866099999995,-79.4664899,-0.035536174,0.15896972,-9.395707,-0.25574833,0.008028043,2.2460022,-0.06892372,-0.07867471,-4.717388,-4.533663,-0.005967029,0.0119490735,-0.037355017,0.6882451,-1.1684263,2.1655712,1.5647997,0.05086324,202.30101,10.260248,0.34221724,0.2948743,0.14300644,0.101851106,inf,inf,inf,inf,1,1,1,1,10,13,2,2,4,1,1,1,0,0,0
442477304,442474836,423422529,43.781866099999995,-79.4664899,-0.055665694,0.15885775,-9.82991,-0.25574833,0.008028043,2.2460022,-0.073810816,-0.111718155,-4.726131,-4.5664496,-0.005967029,0.0119490735,-0.037355017,-1.4346522,0.6854402,-2.3682463,1.5654745,0.05086324,202.30101,10.694451,0.350136,0.2991308,0.14665717,0.103430174,inf,inf,inf,inf,1,1,1,1,10,13,2,2,4,1,1,1,0,0,0
442584836,442583041,423422529,43.781866099999995,-79.4664899,-0.06943798,0.15274908,-10.357205,-0.25574833,0.008028043,2.2460022,-0.048658043,-0.15529427,-4.735375,-4.6077423,-0.005967029,0.0119490735,-0.037355017,-0.8263711,-0.21759214,0.19347607,1.5677719,0.05086324,202.30101,11.221746,0.34204474,0.2946575,0.14139095,0.10175267,inf,inf,inf,inf,1,1,1,1,10,13,2,2,4,1,1,1,0,0,0
442685423,442682219,423422529,43.781866099999995,-79.4664899,-0.07744444,0.14211017,-10.841493,-0.25574833,0.008028043,2.2460022,-0.03754053,-0.16533473,-4.7823334,-4.6783633,-0.005967029,0.0119490735,-0.037355017,0.8595669,-0.5596969,0.27850646,1.5707464,0.05086324,202.30101,11.706034,0.35070592,0.29955,0.14550209,0.1035266,inf,inf,inf,inf,1,1,1,1,10,13,2,2,4,1,1,1,0,0,0
442783028,442781402,423422529,43.781866099999995,-79.4664899,-0.097043484,0.13520013,-11.334485,-0.25574833,0.008028043,2.2460022,-0.030327974,-0.17134611,-4.7906632,-4.713558,-0.005967029,0.0119490735,-0.037355017,0.46466255,-0.3291475,-0.8991878,1.5702199,0.05086324,202.30101,12.199026,0.34181222,0.29545057,0.14015274,0.101816654,inf,inf,inf,inf,1,1,1,1,10,13,2,2,4,1,1,1,0,0,0
442882089,442880589,423422529,43.781866099999995,-79.4664899,-0.11227064,0.1251096,-11.823876,-0.25574833,0.008028043,2.2460022,-0.02428435,-0.18587208,-4.776069,-4.719698,-0.005967029,0.0119490735,-0.037355017,-0.88945764,1.5173023,-2.0916023,1.5685726,0.05086324,202.30101,12.688417,0.35040605,0.3003774,0.1441539,0.10360249,inf,inf,inf,inf,1,1,1,1,10,13,2,2,4,1,1,1,0,0,0
442981617,442979768,423422529,43.781866099999995,-79.4664899,-0.132957,0.1144735,-12.319419,-0.25574833,0.008028043,2.2460022,-0.02645814,-0.1906726,-4.789342,-4.757301,-0.005967029,0.0119490735,-0.037355017,0.614677,-0.53979033,0.33779892,1.568193,0.05086324,202.30101,13.18396,0.34160048,0.29519635,0.13895795,0.10172329,inf,inf,inf,inf,1,1,1,1,10,13,2,2,4,1,1,1,0,0,0
443081009,443078951,423422529,43.781866099999995,-79.4664899,-0.14884904,0.10074364,-12.811539,-0.25574833,0.008028043,2.2460022,-0.028936066,-0.20140173,-4.7836523,-4.769587,-0.005967029,0.0119490735,-0.037355017,-1.518635,0.98536557,-1.8885081,1.5683491,0.05086324,202.30101,13.67608,0.35012728,0.30010942,0.14293276,0.10350464,inf,inf,inf,inf,1,1,1,1,10,13,2,2,4,1,1,1,0,0,0
443179578,443178133,423422529,43.781866099999995,-79.4664899,-0.17377612,0.08860318,-13.308305,-0.25574833,0.008028043,2.2460022,-0.0210115,-0.20878182,-4.772846,-4.779724,-0.005967029,0.0119490735,-0.037355017,0.88397086,-0.98654544,3.2106285,1.5681723,0.05086324,202.30101,14.172846,0.34138823,0.29494938,0.13796274,0.10163341,inf,inf,inf,inf,1,1,1,1,10,13,2,2,4,1,1,1,0,0,0
443280222,443277318,423422529,43.781866099999995,-79.4664899,-0.19238831,0.07381549,-13.799752,-0.25574833,0.008028043,2.2460022,-0.010862347,-0.21048746,-4.774386,-4.7954736,-0.005967029,0.0119490735,-0.037355017,-0.55529094,1.232398,-0.3743788,1.5671701,0.05086324,202.30101,14.664293,0.34985378,0.29984426,0.14189683,0.103411995,inf,inf,inf,inf,1,1,1,1,10,13,2,2,4,1,1,1,0,0,0
443379720,443376504,423422529,43.781866099999995,-79.4664899,-0.21756405,0.058920026,-14.29734,-0.25574833,0.008028043,2.2460022,-0.0051013925,-0.1983826,-4.805656,-4.8439937,-0.005967029,0.0119490735,-0.037355017,-0.17470014,0.7405482,-1.8544551,1.5659623,0.05086324,202.30101,15.161881,0.34117734,0.2947005,0.13709342,0.101546936,inf,inf,inf,inf,1,1,1,1,10,13,2,2,4,1,1,1,0,0,0
443486338,443484700,423422529,43.781866099999995,-79.4664899,-0.23657991,0.042118628,-14.837758,-0.25574833,0.008028043,2.2460022,0.022947093,-0.19377689,-4.8321934,-4.8819976,-0.005967029,0.0119490735,-0.037355017,0.88163584,-0.44280472,0.75162256,1.5662204,0.05086324,202.30101,15.702299,0.35037616,0.30022606,0.14153533,0.103516296,inf,inf,inf,inf,1,1,1,1,10,13,2,2,4,1,1,1,0,0,0
443576782,443574866,423422529,43.781866099999995,-79.4664899,-0.25736618,0.028091678,-15.292043,-0.25574833,0.008028043,2.2460022,0.044963706,-0.1932001,-4.8630843,-4.92236,-0.005967029,0.0119490735,-0.037355017,0.023119722,-0.2217674,0.95494676,1.5661525,0.05086324,202.30101,16.156584,0.34098777,0.29444566,0.13653664,0.10146155,inf,inf,inf,inf,1,1,1,1,10,13,2,2,4,1,1,1,0,0,0
443684790,443683065,423422529,43.781866099999995,-79.4664899,-0.2715255,0.010187226,-15.835481,-0.25574833,0.008028043,2.2460022,0.0685804,-0.18640071,-4.878133,-4.9428496,-0.005967029,0.0119490735,-0.037355017,-1.1350595,1.5794606,0.031161103,1.5652149,0.05086324,202.30101,16.700022,0.35013872,0.29995692,0.14110762,0.10342783,inf,inf,inf,inf,1,1,1,1,10,13,2,2,4,1,1,1,0,0,0
443784000,443782248,423422529,43.781866099999995,-79.4664899,-0.28728274,-0.0047924877,-16.33536,-0.25574833,0.008028043,2.2460022,0.090760574,-0.18090078,-4.912231,-4.982104,-0.005967029,0.0119490735,-0.037355017,0.6780223,-1.1654189,2.1975477,1.5647067,0.05086324,202.30101,17.1999,0.34148213,0.29584005,0.13647875,0.10172643,inf,inf,inf,inf,1,1,1,1,10,13,2,2,4,1,1,1,0,0,0
443883200,443881435,423422529,43.781866099999995,-79.4664899,-0.29493815,-0.019636262,-16.835272,-0.25574833,0.008028043,2.2460022,0.102326475,-0.15929794,-4.947926,-5.019336,-0.005967029,0.0119490735,-0.037355017,-0.37091142,0.72394073,-3.0080004,1.5649914,0.05086324,202.30101,17.699812,0.34984452,0.3007554,0.14062136,0.10350673,inf,inf,inf,inf,1,1,1,1,10,13,2,2,4,1,1,1,0,0,0
443982097,443980614,423422529,43.781866099999995,-79.4664899,-0.30464697,-0.033349175,-17.33878,-0.25574833,0.008028043,2.2460022,0.124887556,-0.14193617,-4.950651,-5.024252,-0.005967029,0.0119490735,-0.037355017,-1.1166002,1.0677998,-1.6217657,1.56593,0.05086324,202.30101,18.20332,0.34124246,0.2955602,0.13622974,0.1016318,inf,inf,inf,inf,1,1,1,1,10,13,2,2,4,1,1,1,0,0,0
444081545,444079797,423422529,43.781866099999995,-79.4664899,-0.3066592,-0.045846462,-17.840029,-0.25574833,0.008028043,2.2460022,0.14884247,-0.12315262,-4.953443,-5.026467,-0.005967029,0.0119490735,-0.037355017,-0.57417774,-0.35212642,1.9890416,1.5657276,0.05086324,202.30101,18.704569,0.34956673,0.3004614,0.14038067,0.10341643,inf,inf,inf,inf,1,1,1,1,10,13,2,2,4,1,1,1,0,0,0
444181828,444178986,423422529,43.781866099999995,-79.4664899,-0.30993775,-0.05737267,-18.340979,-0.25574833,0.008028043,2.2460022,0.17031777,-0.104018986,-4.9460545,-5.01838,-0.005967029,0.0119490735,-0.037355017,-1.9796036,1.2959014,-0.5157348,1.5644132,0.05086324,202.30101,19.205519,0.34101468,0.29527655,0.13593684,0.10154739,inf,inf,inf,inf,1,1,1,1,10,13,2,2,4,1,1,1,0,0,0
444280675,444278178,423422529,43.781866099999995,-79.4664899,-0.3058639,-0.067524016,-18.838257,-0.25574833,0.008028043,2.2460022,0.1904318,-0.09176824,-4.9247923,-4.994587,-0.005967029,0.0119490735,-0.037355017,-1.630853,1.7536258,-0.14681813,1.5623859,0.05086324,202.30101,19.702797,0.34930155,0.30016392,0.1400886,0.1033293,inf,inf,inf,inf,1,1,1,1,10,13,2,2,4,1,1,1,0,0,0
444380277,444377346,423422529,43.781866099999995,-79.4664899,-0.30630463,-0.07944479,-19.334599,-0.25574833,0.008028043,2.2460022,0.2014086,-0.09042186,-4.914718,-4.9830976,-0.005967029,0.0119490735,-0.037355017,0.18656887,-0.7574317,2.1673012,1.5607282,0.05086324,202.30101,20.199139,0.34073892,0.29496533,0.13557144,0.10144797,inf,inf,inf,inf,1,1,1,1,10,13,2,2,4,1,1,1,0,0,0
444487373,444485546,423422529,43.781866099999995,-79.4664899,-0.30100206,-0.09205103,-19.87365,-0.25574833,0.008028043,2.2460022,0.20885532,-0.08774132,-4.909483,-4.9749513,-0.005967029,0.0119490735,-0.037355017,-0.5458796,0.20098224,1.2255307,1.5601273,0.05086324,202.30101,20.73819,0.34975657,0.30047667,0.14010495,0.103418976,inf,inf,inf,inf,1,1,1,1,10,13,2,2,4,1,1,1,0,0,0
444577440,444575718,423422529,43.781866099999995,-79.4664899,-0.29256165,-0.1041316,-20.326982,-0.25574833,0.008028043,2.2460022,0.21222906,-0.08145674,-4.92387,-4.9915957,-0.005967029,0.0119490735,-0.037355017,1.3799441,-0.61561733,-0.57599294,1.5608605,0.05086324,202.30101,21.191523,0.34053236,0.29468614,0.13538158,0.10137375,inf,inf,inf,inf,1,1,1,1,10,13,2,2,4,1,1,1,0,0,0
444685739,444683922,423422529,43.781866099999995,-79.4664899,-0.27709705,-0.11736047,-20.867395,-0.25574833,0.008028043,2.2460022,0.22664781,-0.081521705,-4.8996587,-4.967242,-0.005967029,0.0119490735,-0.037355017,1.1063904,-0.16993783,0.47153574,1.5613046,0.05086324,202.30101,21.731936,0.3495214,0.3001836,0.13997395,0.103346,inf,inf,inf,inf,1,1,1,1,10,13,2,2,4,1,1,1,0,0,0
444784971,444783095,423422529,43.781866099999995,-79.4664899,-0.2701918,-0.12886417,-21.361673,-0.25574833,0.008028043,2.2460022,0.22564928,-0.07862256,-4.886026,-4.9538817,-0.005967029,0.0119490735,-0.037355017,0.991145,-0.7189355,2.3800502,1.561556,0.05086324,202.30101,22.226213,0.34098795,0.29604763,0.13561119,0.10165124,inf,inf,inf,inf,1,1,1,1,10,13,2,2,4,1,1,1,0,0,0
444885045,444882277,423422529,43.781866099999995,-79.4664899,-0.25952,-0.13945846,-21.85129,-0.25574833,0.008028043,2.2460022,0.20885465,-0.0701988,-4.872884,-4.9380255,-0.005967029,0.0119490735,-0.037355017,-0.4967639,0.67070377,-0.6976783,1.562766,0.05086324,202.30101,22.71583,0.34921953,0.30095512,0.13978696,0.10343825,inf,inf,inf,inf,1,1,1,1,10,13,2,2,4,1,1,1,0,0,0
444983388,444981460,423422529,43.781866099999995,-79.4664899,-0.2478455,-0.15019348,-22.337248,-0.25574833,0.008028043,2.2460022,0.20312433,-0.081327595,-4.838695,-4.900357,-0.005967029,0.0119490735,-0.037355017,-0.9272003,0.18165885,0.8393679,1.5658283,0.05086324,202.30101,23.201788,0.3406948,0.2957077,0.13542259,0.10155046,inf,inf,inf,inf,1,1,1,1,10,13,2,2,4,1,1,1,0,0,0
445082250,445080643,423422529,43.781866099999995,-79.4664899,-0.23420745,-0.16031653,-22.817148,-0.25574833,0.008028043,2.2460022,0.19379494,-0.08045132,-4.817277,-4.871482,-0.005967029,0.0119490735,-0.037355017,0.533534,-1.0960963,2.3239129,1.5686052,0.05086324,202.30101,23.681688,0.34889537,0.3005953,0.13963892,0.10334183,inf,inf,inf,inf,1,1,1,1,10,13,2,2,4,1,1,1,0,0,0
445182732,445179828,423422529,43.781866099999995,-79.4664899,-0.22195658,-0.17197295,-23.297852,-0.25574833,0.008028043,2.2460022,0.16355075,-0.07660521,-4.8216314,-4.872197,-0.005967029,0.0119490735,-0.037355017,-0.13432173,1.1340978,-4.6865835,1.5718325,0.05086324,202.30101,24.162392,0.3404741,0.29540238,0.1353209,0.1014867,inf,inf,inf,inf,1,1,1,1,10,13,2,2,4,1,1,1,0,0,0
445280427,445279009,423422529,43.781866099999995,-79.4664899,-0.2095203,-0.18251552,-23.775843,-0.25574833,0.008028043,2.2460022,0.15129127,-0.068310924,-4.834569,-4.877847,-0.005967029,0.0119490735,-0.037355017,0.9587947,-0.7415911,1.1472379,1.5763532,0.05086324,202.30101,24.640383,0.34865597,0.30027694,0.13962014,0.10327855,inf,inf,inf,inf,1,1,1,1,10,13,2,2,4,1,1,1,0,0,0
445380094,445378191,423422529,43.781866099999995,-79.4664899,-0.20115374,-0.19150695,-24.2562,-0.25574833,0.008028043,2.2460022,0.11601648,-0.040000606,-4.8454967,-4.883937,-0.005967029,0.0119490735,-0.037355017,-0.8897974,1.496692,-1.9067476,1.5816101,0.05086324,202.30101,25.12074,0.34021115,0.2950679,0.13542897,0.10141278,inf,inf,inf,inf,1,1,1,1,10,13,2,2,4,1,1,1,0,0,0
445479049,445477374,423422529,43.781866099999995,-79.4664899,-0.19400918,-0.19709985,-24.736103,-0.25574833,0.008028043,2.2460022,0.09070213,-0.00862788,-4.837996,-4.8708663,-0.005967029,0.0119490735,-0.037355017,-2.2708044,0.83152705,-1.2543054,1.5881689,0.05086324,202.30101,25.600643,0.34837806,0.29992414,0.13976914,0.10320433,inf,inf,inf,inf,1,1,1,1,10,13,2,2,4,1,1,1,0,0,0
445578211,445576557,423422529,43.781866099999995,-79.4664899,-0.18905981,-0.1985225,-25.219719,-0.25574833,0.008028043,2.2460022,0.06583084,0.04172615,-4.848429,-4.87962,-0.005967029,0.0119490735,-0.037355017,0.6394544,-0.35184172,2.6218617,1.5958995,0.05086324,202.30101,26.084259,0.33998874,0.29474002,0.13557407,0.101353526,inf,inf,inf,inf,1,1,1,1,10,13,2,2,4,1,1,1,0,0,0
445687187,445684757,423422529,43.781866099999995,-79.4664899,-0.18542224,-0.19409527,-25.74602,-0.25574833,0.008028043,2.2460022,0.031283733,0.08984177,-4.8515625,-4.8785257,-0.005967029,0.0119490735,-0.037355017,-0.009809498,-0.1560335,1.6790037,1.6018643,0.05086324,202.30101,26.61056,0.3489093,0.30022585,0.14041513,0.10334329,inf,inf,inf,inf,1,1,1,1,10,13,2,2,4,1,1,1,0,0,0
445785614,445783941,423422529,43.781866099999995,-79.4664899,-0.19021405,-0.18673088,-26.23094,-0.25574833,0.008028043,2.2460022,0.009656357,0.11770825,-4.8425813,-4.868602,-0.005967029,0.0119490735,-0.037355017,-0.888921,-1.2569712,2.4912066,1.6037121,0.05086324,202.30101,27.09548,0.3405055,0.29504174,0.13622524,0.101500094,inf,inf,inf,inf,1,1,1,1,10,13,2,2,4,1,1,1,0,0,0
445884755,445883121,423422529,43.781866099999995,-79.4664899,-0.19468041,-0.17629038,-26.712427,-0.25574833,0.008028043,2.2460022,-0.0019880368,0.14145358,-4.8152437,-4.8391037,-0.005967029,0.0119490735,-0.037355017,0.00584706,-0.21731618,3.8922012,1.6036572,0.05086324,202.30101,27.576967,0.3486964,0.30099097,0.14056137,0.10347921,inf,inf,inf,inf,1,1,1,1,10,13,2,2,4,1,1,1,0,0,0
445983955,445982304,423422529,43.781866099999995,-79.4664899,-0.2024645,-0.16223305,-27.192003,-0.25574833,0.008028043,2.2460022,-0.019279407,0.16180375,-4.810244,-4.8329954,-0.005967029,0.0119490735,-0.037355017,0.7354606,-0.23584513,1.3808862,1.6003139,0.05086324,202.30101,28.056543,0.3403184,0.29578242,0.13626193,0.10162737,inf,inf,inf,inf,1,1,1,1,10,13,2,2,4,1,1,1,0,0,0
446083096,446081487,423422529,43.781866099999995,-79.4664899,-0.20982163,-0.14702633,-27.667912,-0.25574833,0.008028043,2.2460022,-0.036286008,0.16557845,-4.8083396,-4.8269486,-0.005967029,0.0119490735,-0.037355017,0.5730049,0.89307564,-1.2031039,1.5984967,0.05086324,202.30101,28.532452,0.34850004,0.30066663,0.14059518,0.10342959,inf,inf,inf,inf,1,1,1,1,10,13,2,2,4,1,1,1,0,0,0
446182467,446180673,423422529,43.781866099999995,-79.4664899,-0.22196034,-0.12862042,-28.146292,-0.25574833,0.008028043,2.2460022,-0.056490704,0.1706895,-4.8501024,-4.8659143,-0.005967029,0.0119490735,-0.037355017,-0.84650975,0.8703293,-3.3444216,1.5981635,0.05086324,202.30101,29.010832,0.3401444,0.29548,0.13643777,0.101595566,inf,inf,inf,inf,1,1,1,1,10,13,2,2,4,1,1,1,0,0,0
446282527,446279852,423422529,43.781866099999995,-79.4664899,-0.23285545,-0.11075714,-28.625391,-0.25574833,0.008028043,2.2460022,-0.065348856,0.15777649,-4.8711896,-4.881931,-0.005967029,0.0119490735,-0.037355017,0.12462372,-0.08499066,-1.1588813,1.5990387,0.05086324,202.30101,29.489931,0.34832656,0.3003537,0.14097264,0.10339981,inf,inf,inf,inf,1,1,1,1,10,13,2,2,4,1,1,1,0,0,0
446381817,446379035,423422529,43.781866099999995,-79.4664899,-0.2453535,-0.09097144,-29.107704,-0.25574833,0.008028043,2.2460022,-0.06881838,0.14687456,-4.896013,-4.9029965,-0.005967029,0.0119490735,-0.037355017,-0.4459665,-0.15370393,-1.828202,1.6010677,0.05086324,202.30101,29.972244,0.3399871,0.29517922,0.13678125,0.10156289,inf,inf,inf,inf,1,1,1,1,10,13,2,2,4,1,1,1,0,0,0
446480084,446478217,423422529,43.781866099999995,-79.4664899,-0.2552191,-0.072579905,-29.590641,-0.25574833,0.008028043,2.2460022,-0.06235434,0.14600958,-4.9131103,-4.9146132,-0.005967029,0.0119490735,-0.037355017,-1.365713,0.5517156,-0.13590617,1.6010715,0.05086324,202.30101,30.455181,0.3481765,0.30004245,0.14129414,0.10336889,inf,inf,inf,inf,1,1,1,1,10,13,2,2,4,1,1,1,0,0,0
446579311,446577399,423422529,43.781866099999995,-79.4664899,-0.26905406,-0.0520124,-30.074211,-0.25574833,0.008028043,2.2460022,-0.05821109,0.14093311,-4.905834,-4.902473,-0.005967029,0.0119490735,-0.037355017,0.202907,-1.6434995,2.9332595,1.6010078,0.05086324,202.30101,30.938751,0.33984882,0.29488853,0.13710459,0.101534165,inf,inf,inf,inf,1,1,1,1,10,13,2,2,4,1,1,1,0,0,0
446678238,446676587,423422529,43.781866099999995,-79.4664899,-0.2796954,-0.032322668,-30.5574,-0.25574833,0.008028043,2.2460022,-0.044508833,0.15169252,-4.9205937,-4.912644,-0.005967029,0.0119490735,-0.037355017,1.116629,-0.21613948,0.8933085,1.5987943,0.05086324,202.30101,31.42194,0.34804493,0.300833,0.14151657,0.10351822,inf,inf,inf,inf,1,1,1,1,10,13,2,2,4,1,1,1,0,0,0
446786561,446784781,423422529,43.781866099999995,-79.4664899,-0.29088014,-0.010006959,-31.085253,-0.25574833,0.008028043,2.2460022,-0.019512862,0.13606049,-4.904257,-4.8928227,-0.005967029,0.0119490735,-0.037355017,0.19221425,-1.619998,3.4024904,1.5928847,0.05086324,202.30101,31.949793,0.34039602,0.29520202,0.13761099,0.10167336,inf,inf,inf,inf,1,1,1,1,10,13,2,2,4,1,1,1,0,0,0
446876879,446874947,423422529,43.781866099999995,-79.4664899,-0.29616222,0.005959195,-31.52532,-0.25574833,0.008028043,2.2460022,0.00078709907,0.12432344,-4.9057794,-4.8925433,-0.005967029,0.0119490735,-0.037355017,-0.09571989,2.0090373,-3.4498107,1.5867461,0.05086324,202.30101,32.389862,0.34786513,0.30050865,0.14156218,0.10344795,inf,inf,inf,inf,1,1,1,1,10,13,2,2,4,1,1,1,0,0,0
446984841,446983145,423422529,43.781866099999995,-79.4664899,-0.30344364,0.024108883,-32.050545,-0.25574833,0.008028043,2.2460022,0.022676622,0.100055434,-4.8795667,-4.864065,-0.005967029,0.0119490735,-0.037355017,-1.1110606,1.3227848,-3.0090604,1.5824317,0.05086324,202.30101,32.915085,0.34017974,0.29590777,0.13748333,0.101750724,inf,inf,inf,inf,1,1,1,1,10,13,2,2,4,1,1,1,0,0,0
447083862,447082328,423422529,43.781866099999995,-79.4664899,-0.30623898,0.03736251,-32.53247,-0.25574833,0.008028043,2.2460022,0.049088802,0.0681886,-4.902851,-4.8853254,-0.005967029,0.0119490735,-0.037355017,2.0565689,-1.957873,1.5954424,1.5803303,0.05086324,202.30101,33.39701,0.34840807,0.30079874,0.14195997,0.10355609,inf,inf,inf,inf,1,1,1,1,10,13,2,2,4,1,1,1,0,0,0
447183287,447181510,423422529,43.781866099999995,-79.4664899,-0.3156446,0.04985542,-33.015785,-0.25574833,0.008028043,2.2460022,0.05389138,0.04223582,-4.915247,-4.8966155,-0.005967029,0.0119490735,-0.037355017,-1.5518419,1.2430608,-4.020013,1.5800375,0.05086324,202.30101,33.880325,0.34009486,0.29564106,0.1376694,0.10171685,inf,inf,inf,inf,1,1,1,1,10,13,2,2,4,1,1,1,0,0,0
447282126,447280693,423422529,43.781866099999995,-79.4664899,-0.31903797,0.057271183,-33.503002,-0.25574833,0.008028043,2.2460022,0.07899662,0.010565468,-4.972122,-4.9522576,-0.005967029,0.0119490735,-0.037355017,0.77745116,-0.6971448,0.8002817,1.5820901,0.05086324,202.30101,34.367542,0.34833518,0.3005179,0.1423201,0.103515774,inf,inf,inf,inf,1,1,1,1,10,13,2,2,4,1,1,1,0,0,0
447382558,447379875,423422529,43.781866099999995,-79.4664899,-0.32924107,0.06722855,-33.995155,-0.25574833,0.008028043,2.2460022,0.083007455,0.0041343006,-5.0046625,-4.984821,-0.005967029,0.0119490735,-0.037355017,1.0125849,-0.3848812,-1.7320442,1.5850074,0.05086324,202.30101,34.859695,0.33996662,0.29534045,0.13809176,0.1016581,inf,inf,inf,inf,1,1,1,1,10,13,2,2,4,1,1,1,0,0,0
447481552,447479060,423422529,43.781866099999995,-79.4664899,-0.33375847,0.073723875,-34.490303,-0.25574833,0.008028043,2.2460022,0.09434871,-0.017267298,-5.0134487,-4.994488,-0.005967029,0.0119490735,-0.037355017,0.6319355,-0.3466228,-0.7726258,1.5856173,0.05086324,202.30101,35.354843,0.3482204,0.3002063,0.14266105,0.1034509,inf,inf,inf,inf,1,1,1,1,10,13,2,2,4,1,1,1,0,0,0
447580278,447578239,423422529,43.781866099999995,-79.4664899,-0.3389206,0.07704955,-34.984306,-0.25574833,0.008028043,2.2460022,0.109414324,-0.044053532,-4.997412,-4.97838,-0.005967029,0.0119490735,-0.037355017,0.39006862,-0.96560985,0.50560963,1.5850708,0.05086324,202.30101,35.848846,0.33979833,0.29501206,0.13823712,0.10157803,inf,inf,inf,inf,1,1,1,1,10,13,2,2,4,1,1,1,0,0,0
447680216,447677436,423422529,43.781866099999995,-79.4664899,-0.3391186,0.07619366,-35.476807,-0.25574833,0.008028043,2.2460022,0.12441214,-0.066302076,-4.994353,-4.974627,-0.005967029,0.0119490735,-0.037355017,0.21454468,-0.37179908,1.1334943,1.5836682,0.05086324,202.30101,36.341347,0.34805217,0.29986098,0.1426841,0.10337267,inf,inf,inf,inf,1,1,1,1,10,13,2,2,4,1,1,1,0,0,0
447778077,447776603,423422529,43.781866099999995,-79.4664899,-0.3422298,0.073830135,-35.967407,-0.25574833,0.008028043,2.2460022,0.13785866,-0.08957485,-4.995333,-4.97385,-0.005967029,0.0119490735,-0.037355017,0.6430809,-0.28210244,-0.11846249,1.5822047,0.05086324,202.30101,36.831947,0.33964956,0.29573628,0.13822891,0.10167872,inf,inf,inf,inf,1,1,1,1,10,13,2,2,4,1,1,1,0,0,0
447878400,447875786,423422529,43.781866099999995,-79.4664899,-0.34085223,0.0682133,-36.460354,-0.25574833,0.008028043,2.2460022,0.14391392,-0.107665576,-5.0062356,-4.9842334,-0.005967029,0.0119490735,-0.037355017,1.032332,-0.55811363,-0.2036378,1.5817629,0.05086324,202.30101,37.324894,0.34790275,0.30062595,0.14275919,0.1034811,inf,inf,inf,inf,1,1,1,1,10,13,2,2,4,1,1,1,0,0,0
447985452,447983984,423422529,43.781866099999995,-79.4664899,-0.34179816,0.061588794,-36.997948,-0.25574833,0.008028043,2.2460022,0.1571696,-0.13170382,-4.994621,-4.9715953,-0.005967029,0.0119490735,-0.037355017,1.5613741,-2.2536132,3.3882027,1.5820379,0.05086324,202.30101,37.862488,0.34024552,0.29604742,0.13874778,0.101810426,inf,inf,inf,inf,1,1,1,1,10,13,2,2,4,1,1,1,0,0,0
448085557,448083166,423422529,43.781866099999995,-79.4664899,-0.33810377,0.052515745,-37.490665,-0.25574833,0.008028043,2.2460022,0.1594644,-0.14416811,-5.003432,-4.97978,-0.005967029,0.0119490735,-0.037355017,1.049984,-0.9959493,-0.34555793,1.5819019,0.05086324,202.30101,38.355206,0.34854692,0.3009445,0.14322135,0.10361599,inf,inf,inf,inf,1,1,1,1,10,13,2,2,4,1,1,1,0,0,0
448184031,448182349,423422529,43.781866099999995,-79.4664899,-0.33999467,0.040530067,-37.980762,-0.25574833,0.008028043,2.2460022,0.15341175,-0.16052233,-4.9974766,-4.970938,-0.005967029,0.0119490735,-0.037355017,0.95862603,-2.3059494,1.7437526,1.5825264,0.05086324,202.30101,38.845303,0.34012446,0.2957398,0.138739,0.101752736,inf,inf,inf,inf,1,1,1,1,10,13,2,2,4,1,1,1,0,0,0
448282931,448281530,423422529,43.781866099999995,-79.4664899,-0.33789277,0.026731942,-38.470573,-0.25574833,0.008028043,2.2460022,0.14671013,-0.15869841,-4.9818797,-4.953305,-0.005967029,0.0119490735,-0.037355017,1.2705195,-0.059508268,0.906055,1.5824261,0.05086324,202.30101,39.335114,0.3484283,0.30061674,0.14325748,0.103557296,inf,inf,inf,inf,1,1,1,1,10,13,2,2,4,1,1,1,0,0,0
448382230,448380713,423422529,43.781866099999995,-79.4664899,-0.3394555,0.012105236,-38.95763,-0.25574833,0.008028043,2.2460022,0.14319262,-0.15648364,-4.9664974,-4.935149,-0.005967029,0.0119490735,-0.037355017,1.245665,-0.6941524,0.88756114,1.5808724,0.05086324,202.30101,39.82217,0.3399952,0.29543436,0.13866936,0.10170837,inf,inf,inf,inf,1,1,1,1,10,13,2,2,4,1,1,1,0,0,0
448481502,448479900,423422529,43.781866099999995,-79.4664899,-0.3368876,-0.0027183036,-39.445316,-0.25574833,0.008028043,2.2460022,0.13984974,-0.14956085,-4.9634876,-4.9311247,-0.005967029,0.0119490735,-0.037355017,1.4447333,-0.56602156,0.5865679,1.5797812,0.05086324,202.30101,40.309856,0.34829912,0.30030093,0.14311315,0.10350978,inf,inf,inf,inf,1,1,1,1,10,13,2,2,4,1,1,1,0,0,0
448580788,448579077,423422529,43.781866099999995,-79.4664899,-0.33925864,-0.017423391,-39.93143,-0.25574833,0.008028043,2.2460022,0.13327765,-0.14015257,-4.9811125,-4.9459925,-0.005967029,0.0119490735,-0.037355017,-0.009244926,-1.2096322,-1.397699,1.5797575,0.05086324,202.30101,40.79597,0.33988217,0.29513088,0.13862221,0.10165895,inf,inf,inf,inf,1,1,1,1,10,13,2,2,4,1,1,1,0,0,0
448680993,448678259,423422529,43.781866099999995,-79.4664899,-0.3372928,-0.03082507,-40.419445,-0.25574833,0.008028043,2.2460022,0.13986678,-0.122847736,-4.991627,-4.954457,-0.005967029,0.0119490735,-0.037355017,1.2843882,-0.50415516,1.2475239,1.5812453,0.05086324,202.30101,41.283985,0.3481903,0.2999873,0.14316164,0.103456266,inf,inf,inf,inf,1,1,1,1,10,13,2,2,4,1,1,1,0,0,0
448779972,448777441,423422529,43.781866099999995,-79.4664899,-0.33883542,-0.045173448,-40.909405,-0.25574833,0.008028043,2.2460022,0.15419208,-0.108633965,-5.0022197,-4.9635544,-0.005967029,0.0119490735,-0.037355017,1.8031565,-1.1740377,1.9150527,1.581199,0.05086324,202.30101,41.773945,0.33979908,0.29589373,0.13871095,0.10177754,inf,inf,inf,inf,1,1,1,1,10,13,2,2,4,1,1,1,0,0,0
448878657,448876628,423422529,43.781866099999995,-79.4664899,-0.33509988,-0.058308836,-41.401524,-0.25574833,0.008028043,2.2460022,0.16602954,-0.102266036,-4.995054,-4.957431,-0.005967029,0.0119490735,-0.037355017,1.3667471,-1.244943,1.2800994,1.5802541,0.05086324,202.30101,42.266064,0.3481155,0.30078807,0.14320803,0.10357389,inf,inf,inf,inf,1,1,1,1,10,13,2,2,4,1,1,1,0,0,0
448977616,448975805,423422529,43.781866099999995,-79.4664899,-0.3316408,-0.06984024,-41.891884,-0.25574833,0.008028043,2.2460022,0.18340285,-0.09406031,-4.985944,-4.948295,-0.005967029,0.0119490735,-0.037355017,1.2932729,-2.6039793,2.9318619,1.5792451,0.05086324,202.30101,42.756424,0.33967206,0.29557785,0.13861291,0.10168932,inf,inf,inf,inf,1,1,1,1,10,13,2,2,4,1,1,1,0,0,0
449085959,449083879,423422529,43.781866099999995,-79.4664899,-0.32201907,-0.08126845,-42.42554,-0.25574833,0.008028043,2.2460022,0.19883323,-0.08991148,-4.9656687,-4.9277716,-0.005967029,0.0119490735,-0.037355017,-0.24616674,0.026148517,2.62741,1.578416,0.05086324,202.30101,43.29008,0.34876555,0.30110893,0.14353977,0.10367617,inf,inf,inf,inf,1,1,1,1,10,13,2,2,4,1,1,1,0,0,0
449176199,449174168,423422529,43.781866099999995,-79.4664899,-0.3173644,-0.09013729,-42.8677,-0.25574833,0.008028043,2.2460022,0.19710013,-0.07697906,-4.974185,-4.9333124,-0.005967029,0.0119490735,-0.037355017,0.7190122,0.3295398,-0.99087924,1.5778186,0.05086324,202.30101,43.73224,0.33957526,0.29527658,0.13849185,0.1016022,inf,inf,inf,inf,1,1,1,1,10,13,2,2,4,1,1,1,0,0,0
449283790,449282367,423422529,43.781866099999995,-79.4664899,-0.30677935,-0.09979552,-43.397804,-0.25574833,0.008028043,2.2460022,0.20730248,-0.07515813,-4.9399333,-4.897681,-0.005967029,0.0119490735,-0.037355017,0.5994142,-1.8684059,3.69189,1.5766586,0.05086324,202.30101,44.262344,0.34866628,0.3007904,0.14337276,0.10358863,inf,inf,inf,inf,1,1,1,1,10,13,2,2,4,1,1,1,0,0,0
449383056,449381548,423422529,43.781866099999995,-79.4664899,-0.29815975,-0.10727069,-43.881615,-0.25574833,0.008028043,2.2460022,0.20599706,-0.05881021,-4.9525757,-4.90854,-0.005967029,0.0119490735,-0.037355017,0.04903577,1.4534438,-2.8342862,1.5736095,0.05086324,202.30101,44.746155,0.34022304,0.29561698,0.13873087,0.10172114,inf,inf,inf,inf,1,1,1,1,10,13,2,2,4,1,1,1,0,0,0
449482270,449480733,423422529,43.781866099999995,-79.4664899,-0.2855858,-0.11391309,-44.366062,-0.25574833,0.008028043,2.2460022,0.21255165,-0.057364214,-4.939445,-4.894387,-0.005967029,0.0119490735,-0.037355017,-1.1419122,0.82933503,-1.0862703,1.5720783,0.05086324,202.30101,45.230602,0.34857532,0.30048567,0.14323987,0.103503145,inf,inf,inf,inf,1,1,1,1,10,13,2,2,4,1,1,1,0,0,0
449581392,449579917,423422529,43.781866099999995,-79.4664899,-0.27672276,-0.11983484,-44.8508,-0.25574833,0.008028043,2.2460022,0.2080528,-0.046515755,-4.9528904,-4.906604,-0.005967029,0.0119490735,-0.037355017,2.0944777,-0.546305,0.4257903,1.5737534,0.05086324,202.30101,45.71534,0.34014195,0.29532787,0.13871409,0.10164408,inf,inf,inf,inf,1,1,1,1,10,13,2,2,4,1,1,1,0,0,0
449681506,449679107,423422529,43.781866099999995,-79.4664899,-0.2658973,-0.12478809,-45.337353,-0.25574833,0.008028043,2.2460022,0.1836438,-0.035707615,-4.949314,-4.902946,-0.005967029,0.0119490735,-0.037355017,1.6094854,-1.8900626,2.2378116,1.5768036,0.05086324,202.30101,46.201893,0.3484955,0.30018523,0.14321259,0.103433296,inf,inf,inf,inf,1,1,1,1,10,13,2,2,4,1,1,1,0,0,0
449780838,449778278,423422529,43.781866099999995,-79.4664899,-0.26133713,-0.12906674,-45.8151,-0.25574833,0.008028043,2.2460022,0.1673142,-0.0046414905,-4.8009777,-4.752296,-0.005967029,0.0119490735,-0.037355017,2.5116718,-1.0776042,7.010513,1.5776676,0.05086324,202.30101,46.67964,0.34006947,0.29609218,0.13859484,0.10175719,inf,inf,inf,inf,1,1,1,1,10,13,2,2,4,1,1,1,0,0,0
449880574,449877462,423422529,43.781866099999995,-79.4664899,-0.25584748,-0.13133992,-46.269535,-0.25574833,0.008028043,2.2460022,0.14021845,-0.0044401246,-4.489093,-4.43815,-0.005967029,0.0119490735,-0.037355017,4.0280976,-2.0355422,3.679502,1.5740788,0.05086324,202.30101,47.134075,0.3484152,0.30098718,0.142508,0.10355964,inf,inf,inf,inf,1,1,1,1,10,13,2,2,4,1,1,1,0,0,0
449979161,449976639,423422529,43.781866099999995,-79.4664899,-0.2529501,-0.13560297,-46.692543,-0.25574833,0.008028043,2.2460022,0.09066962,-0.0261446,-4.0922084,-4.044437,-0.005967029,0.0119490735,-0.037355017,-3.822767,1.0800731,4.732185,1.56768,0.05086324,202.30101,47.557083,0.33994913,0.2957882,0.13684162,0.10169798,inf,inf,inf,inf,1,1,1,1,10,13,2,2,4,1,1,1,0,0,0
450086564,450084837,423422529,43.781866099999995,-79.4664899,-0.24938524,-0.14157212,-47.111465,-0.25574833,0.008028043,2.2460022,0.08326913,-0.029130083,-3.6799636,-3.6355777,-0.005967029,0.0119490735,-0.037355017,2.3823917,1.3974506,1.0406625,1.5606177,0.05086324,202.30101,47.976006,0.3489868,0.30132133,0.14026125,0.103712186,inf,inf,inf,inf,1,1,1,1,10,13,2,2,4,1,1,1,0,0,0
450176392,450175002,423422529,43.781866099999995,-79.4664899,-0.25612423,-0.14463863,-47.43827,-0.25574833,0.008028043,2.2460022,0.05729077,-0.033279844,-3.3343499,-3.3049936,-0.005967029,0.0119490735,-0.037355017,1.6059574,1.0529877,2.2398067,1.5553035,0.05086324,202.30101,48.30281,0.33981863,0.2954944,0.1346123,0.10166494,inf,inf,inf,inf,1,1,1,1,10,13,2,2,4,1,1,1,0,0,0
450284931,450283202,423422529,43.781866099999995,-79.4664899,-0.2627996,-0.14843582,-47.78567,-0.25574833,0.008028043,2.2460022,0.020720229,-0.04259061,-2.9151053,-2.897639,-0.005967029,0.0119490735,-0.037355017,-4.558209,-1.123084,7.2481184,1.5503395,0.05086324,202.30101,48.65021,0.34875715,0.30101624,0.13813075,0.10369368,inf,inf,inf,inf,1,1,1,1,10,13,2,2,4,1,1,1,0,0,0
450383840,450382382,423422529,43.781866099999995,-79.4664899,-0.2795641,-0.1516875,-48.082443,-0.25574833,0.008028043,2.2460022,0.015015639,-0.04530742,-2.572399,-2.5797353,-0.005967029,0.0119490735,-0.037355017,-0.93913716,-2.9797647,8.075182,1.5482752,0.05086324,202.30101,48.946983,0.3403831,0.29583922,0.13324729,0.10184388,inf,inf,inf,inf,1,1,1,1,10,13,2,2,4,1,1,1,0,0,0
450483220,450481564,423422529,43.781866099999995,-79.4664899,-0.29303724,-0.15517493,-48.341774,-0.25574833,0.008028043,2.2460022,0.009523047,-0.030874306,-2.2740042,-2.2982152,-0.005967029,0.0119490735,-0.037355017,3.3756514,1.4075862,0.16507405,1.5465934,0.05086324,202.30101,49.206314,0.34851623,0.3007121,0.13675657,0.10365144,inf,inf,inf,inf,1,1,1,1,10,13,2,2,4,1,1,1,0,0,0
450582263,450580745,423422529,43.781866099999995,-79.4664899,-0.3128472,-0.15491192,-48.587746,-0.25574833,0.008028043,2.2460022,-0.009848572,-0.026780205,-1.9845897,-2.0396636,-0.005967029,0.0119490735,-0.037355017,-5.1583676,2.139646,2.9764833,1.5461457,0.05086324,202.30101,49.452286,0.34022862,0.2955632,0.13225381,0.10181986,inf,inf,inf,inf,1,1,1,1,10,13,2,2,4,1,1,1,0,0,0
450682611,450679927,423422529,43.781866099999995,-79.4664899,-0.32747155,-0.15377204,-48.801846,-0.25574833,0.008028043,2.2460022,0.0085391905,-0.011936016,-1.7454028,-1.8218317,-0.005967029,0.0119490735,-0.037355017,2.7151597,-0.5765132,1.6276683,1.5471833,0.05086324,202.30101,49.666386,0.34830588,0.30042568,0.13590515,0.10360694,inf,inf,inf,inf,1,1,1,1,10,13,2,2,4,1,1,1,0,0,0
450781593,450779013,423422529,43.781866099999995,-79.4664899,-0.34393555,-0.14873478,-49.001953,-0.25574833,0.008028043,2.2460022,0.009835023,0.020519698,-1.5319967,-1.6367893,-0.005967029,0.0119490735,-0.037355017,5.0707088,2.4606342,-4.5194244,1.5471091,0.05086324,202.30101,49.866493,0.3400141,0.296305,0.13168037,0.10190395,inf,inf,inf,inf,1,1,1,1,10,13,2,2,4,1,1,1,0,0,0
450880923,450878290,423422529,43.781866099999995,-79.4664899,-0.35648927,-0.1426908,-49.175312,-0.25574833,0.008028043,2.2460022,-0.0052897832,0.025471874,-1.2863835,-1.4115322,-0.005967029,0.0119490735,-0.037355017,-4.656166,0.76613843,2.8854582,1.5471857,0.05086324,202.30101,50.039852,0.34805104,0.30120796,0.13541366,0.103716,inf,inf,inf,inf,1,1,1,1,10,13,2,2,4,1,1,1,0,0,0
450979011,450977472,423422529,43.781866099999995,-79.4664899,-0.37144876,-0.13488148,-49.332153,-0.25574833,0.008028043,2.2460022,0.023834847,0.03660101,-1.105314,-1.2527789,-0.005967029,0.0119490735,-0.037355017,4.128002,-1.9529475,2.315535,1.5483038,0.05086324,202.30101,50.196693,0.33980098,0.29600555,0.13130613,0.101818964,inf,inf,inf,inf,1,1,1,1,10,13,2,2,4,1,1,1,0,0,0
451079103,451076663,423422529,43.781866099999995,-79.4664899,-0.38216653,-0.12661242,-49.4664,-0.25574833,0.008028043,2.2460022,0.007246414,0.05212341,-0.90505046,-1.0682425,-0.005967029,0.0119490735,-0.037355017,-4.348005,-0.6245246,6.0564284,1.5487859,0.05086324,202.30101,50.33094,0.34781116,0.3008919,0.13514872,0.103613496,inf,inf,inf,inf,1,1,1,1,10,13,2,2,4,1,1,1,0,0,0
451177514,451175834,423422529,43.781866099999995,-79.4664899,-0.38984084,-0.11502846,-49.58188,-0.25574833,0.008028043,2.2460022,0.039026096,0.07943929,-0.75903535,-0.93525106,-0.005967029,0.0119490735,-0.037355017,5.2668114,0.41202772,-1.4744915,1.5488625,0.05086324,202.30101,50.44642,0.3396138,0.2957234,0.13112913,0.10172879,inf,inf,inf,inf,1,1,1,1,10,13,2,2,4,1,1,1,0,0,0
451276431,451275016,423422529,43.781866099999995,-79.4664899,-0.3922544,-0.10258483,-49.675922,-0.25574833,0.008028043,2.2460022,0.06894956,0.08373836,-0.5991007,-0.78186995,-0.005967029,0.0119490735,-0.037355017,3.2253044,-0.31792557,-0.34932646,1.5469843,0.05086324,202.30101,50.540462,0.34760973,0.30059764,0.13499102,0.103516914,inf,inf,inf,inf,1,1,1,1,10,13,2,2,4,1,1,1,0,0,0
451385083,451383214,423422529,43.781866099999995,-79.4664899,-0.3962605,-0.087110914,-49.760105,-0.25574833,0.008028043,2.2460022,0.06155088,0.09828187,-0.4586386,-0.64540195,-0.005967029,0.0119490735,-0.037355017,-4.789272,1.7541697,1.2952454,1.5444192,0.05086324,202.30101,50.624645,0.34016952,0.29608983,0.13143735,0.101822905,inf,inf,inf,inf,1,1,1,1,10,13,2,2,4,1,1,1,0,0,0
451484003,451482395,423422529,43.781866099999995,-79.4664899,-0.39492807,-0.07365026,-49.823936,-0.25574833,0.008028043,2.2460022,0.11347435,0.09789368,-0.3851152,-0.57211924,-0.005967029,0.0119490735,-0.037355017,3.5641491,0.71669346,-1.729393,1.5427624,0.05086324,202.30101,50.688477,0.348201,0.30096546,0.13543631,0.103582375,inf,inf,inf,inf,1,1,1,1,10,13,2,2,4,1,1,1,0,0,0
451583343,451581578,423422529,43.781866099999995,-79.4664899,-0.3875119,-0.05913852,-49.872227,-0.25574833,0.008028043,2.2460022,0.11022656,0.11686607,-0.2830432,-0.46431425,-0.005967029,0.0119490735,-0.037355017,-3.67345,2.2230558,0.88425547,1.5392616,0.05086324,202.30101,50.736767,0.34002852,0.29582635,0.13162436,0.10169386,inf,inf,inf,inf,1,1,1,1,10,13,2,2,4,1,1,1,0,0,0
451682773,451680774,423422529,43.781866099999995,-79.4664899,-0.3756057,-0.046173856,-49.91217,-0.25574833,0.008028043,2.2460022,0.15790577,0.09084218,-0.21692228,-0.39248866,-0.005967029,0.0119490735,-0.037355017,2.8652828,-1.7879155,3.4511952,1.5354512,0.05086324,202.30101,50.77671,0.34807044,0.3006839,0.1357065,0.103436984,inf,inf,inf,inf,1,1,1,1,10,13,2,2,4,1,1,1,0,0,0
451781728,451779941,423422529,43.781866099999995,-79.4664899,-0.36699894,-0.035089273,-49.936527,-0.25574833,0.008028043,2.2460022,0.17404798,0.08801918,-0.16818678,-0.32973397,-0.005967029,0.0119490735,-0.037355017,3.3164043,-1.6329126,2.2866201,1.5340252,0.05086324,202.30101,50.801067,0.33984926,0.29552564,0.1318783,0.10155442,inf,inf,inf,inf,1,1,1,1,10,13,2,2,4,1,1,1,0,0,0
451880856,451879120,423422529,43.781866099999995,-79.4664899,-0.3541679,-0.025975293,-49.958523,-0.25574833,0.008028043,2.2460022,0.1953366,0.06832471,-0.123767145,-0.27477556,-0.005967029,0.0119490735,-0.037355017,1.4110572,-1.5406791,4.575967,1.5345253,0.05086324,202.30101,50.823063,0.34790263,0.3014759,0.13604556,0.10348935,inf,inf,inf,inf,1,1,1,1,10,13,2,2,4,1,1,1,0,0,0
451980047,451978302,423422529,43.781866099999995,-79.4664899,-0.337987,-0.018181272,-49.965275,-0.25574833,0.008028043,2.2460022,0.23822618,0.04161577,-0.07668038,-0.20744146,-0.005967029,0.0119490735,-0.037355017,1.5342975,-4.0164423,4.6018353,1.5356898,0.05086324,202.30101,50.829815,0.33969215,0.2962742,0.13231054,0.10157484,inf,inf,inf,inf,1,1,1,1,10,13,2,2,4,1,1,1,0,0,0
452078946,452077483,423422529,43.781866099999995,-79.4664899,-0.31816497,-0.012457334,-49.97263,-0.25574833,0.008028043,2.2460022,0.23239797,0.05476803,-0.07302343,-0.18953407,-0.005967029,0.0119490735,-0.037355017,0.39798445,0.288812,1.7189455,1.5379536,0.05086324,202.30101,50.83717,0.3477632,0.30114967,0.13656642,0.10331867,inf,inf,inf,inf,1,1,1,1,10,13,2,2,4,1,1,1,0,0,0
452187225,452185681,423422529,43.781866099999995,-79.4664899,-0.29911062,-0.0044037616,-49.968174,-0.25574833,0.008028043,2.2460022,0.23171961,0.06846008,-0.05920325,-0.15128107,-0.005967029,0.0119490735,-0.037355017,2.621514,-0.9722091,-3.3110268,1.5407747,0.05086324,202.30101,50.832714,0.34025773,0.29659083,0.1332111,0.10161323,inf,inf,inf,inf,1,1,1,1,10,13,2,2,4,1,1,1,0,0,0
452277583,452275848,423422529,43.781866099999995,-79.4664899,-0.28076157,0.0016941208,-49.966335,-0.25574833,0.008028043,2.2460022,0.22895285,0.05097975,0.0046366793,-0.07435364,-0.005967029,0.0119490735,-0.037355017,-4.7842717,0.27882558,6.57754,1.5431453,0.05086324,202.30101,50.830875,0.34763366,0.30082175,0.1372304,0.10316368,inf,inf,inf,inf,1,1,1,1,10,13,2,2,4,1,1,1,0,0,0
452385855,452384043,423422529,43.781866099999995,-79.4664899,-0.26026788,0.0057069836,-49.944473,-0.25574833,0.008028043,2.2460022,0.23877096,0.054853793,-0.04061281,-0.08764089,-0.005967029,0.0119490735,-0.037355017,2.1910868,1.1307818,-6.4712815,1.5466534,0.05086324,202.30101,50.809013,0.34018308,0.2963172,0.13381377,0.10149232,inf,inf,inf,inf,1,1,1,1,10,13,2,2,4,1,1,1,0,0,0
452484899,452483224,423422529,43.781866099999995,-79.4664899,-0.23875532,0.008344849,-49.934803,-0.25574833,0.008028043,2.2460022,0.24325153,0.050782103,-0.03167556,-0.062899135,-0.005967029,0.0119490735,-0.037355017,-2.5456223,2.3074698,-4.594125,1.5474242,0.05086324,202.30101,50.799343,0.34834626,0.30118248,0.138324,0.103222966,inf,inf,inf,inf,1,1,1,1,10,13,2,2,4,1,1,1,0,0,0
452583840,452582406,423422529,43.781866099999995,-79.4664899,-0.21649122,0.010969537,-49.912514,-0.25574833,0.008028043,2.2460022,0.262119,0.04188306,-0.049249366,-0.050838564,-0.005967029,0.0119490735,-0.037355017,0.98785734,-2.865689,5.237771,1.547082,0.05086324,202.30101,50.777054,0.3400757,0.29601473,0.13467176,0.10132071,inf,inf,inf,inf,1,1,1,1,10,13,2,2,4,1,1,1,0,0,0
452683439,452681586,423422529,43.781866099999995,-79.4664899,-0.19343653,0.013075839,-49.901047,-0.25574833,0.008028043,2.2460022,0.2508608,0.03197719,-0.051338352,-0.037023917,-0.005967029,0.0119490735,-0.037355017,1.8234001,-1.9964559,0.095224075,1.5464298,0.05086324,202.30101,50.765587,0.3482694,0.30085492,0.1392989,0.103063494,inf,inf,inf,inf,1,1,1,1,10,13,2,2,4,1,1,1,0,0,0
452783292,452780768,423422529,43.781866099999995,-79.4664899,-0.17099397,0.010877644,-49.874146,-0.25574833,0.008028043,2.2460022,0.2319859,0.05423355,-0.09131153,-0.04725571,-0.005967029,0.0119490735,-0.037355017,-1.398439,4.70349,-8.4880705,1.5473515,0.05086324,202.30101,50.738686,0.33998457,0.2957094,0.13535553,0.10119468,inf,inf,inf,inf,1,1,1,1,10,13,2,2,4,1,1,1,0,0,0
452881595,452879949,423422529,43.781866099999995,-79.4664899,-0.14789031,0.010822416,-49.86297,-0.25574833,0.008028043,2.2460022,0.24360213,0.035519313,-0.09313341,-0.03425152,-0.005967029,0.0119490735,-0.037355017,-0.98741126,-3.8771133,9.423349,1.547863,0.05086324,202.30101,50.72751,0.3482042,0.30164385,0.14015111,0.10309283,inf,inf,inf,inf,1,1,1,1,10,13,2,2,4,1,1,1,0,0,0
452981089,452979134,423422529,43.781866099999995,-79.4664899,-0.12615341,0.00701405,-49.83455,-0.25574833,0.008028043,2.2460022,0.2235791,0.028980251,-0.11809613,-0.02776606,-0.005967029,0.0119490735,-0.037355017,3.141655,0.9262864,-4.405085,1.5486218,0.05086324,202.30101,50.69909,0.33985707,0.29642624,0.13629796,0.10119617,inf,inf,inf,inf,1,1,1,1,10,13,2,2,4,1,1,1,0,0,0
453080215,453078311,423422529,43.781866099999995,-79.4664899,-0.104459114,0.0016109215,-49.815067,-0.25574833,0.008028043,2.2460022,0.19900027,0.0007053401,-0.07246484,0.035153564,-0.005967029,0.0119490735,-0.037355017,-5.152558,0.1193846,3.2285664,1.5487504,0.05086324,202.30101,50.679607,0.3481008,0.30128723,0.14079669,0.10293262,inf,inf,inf,inf,1,1,1,1,10,13,2,2,4,1,1,1,0,0,0
453178919,453177492,423422529,43.781866099999995,-79.4664899,-0.08723872,-0.0040192935,-49.780582,-0.25574833,0.008028043,2.2460022,0.20178598,0.0004448202,-0.11518684,0.02283695,-0.005967029,0.0119490735,-0.037355017,1.780661,0.11286973,-4.4516287,1.5494654,0.05086324,202.30101,50.645123,0.33975226,0.29609498,0.13683558,0.10104307,inf,inf,inf,inf,1,1,1,1,10,13,2,2,4,1,1,1,0,0,0
453278477,453276695,423422529,43.781866099999995,-79.4664899,-0.07119903,-0.009664732,-49.755817,-0.25574833,0.008028043,2.2460022,0.17751059,-0.017728413,-0.10006071,0.054732077,-0.005967029,0.0119490735,-0.037355017,-0.43975356,0.7006644,-0.53109735,1.5514064,0.05086324,202.30101,50.620358,0.3480134,0.30093524,0.14146106,0.10278038,inf,inf,inf,inf,1,1,1,1,10,13,2,2,4,1,1,1,0,0,0
453386518,453384870,423422529,43.781866099999995,-79.4664899,-0.05695957,-0.016227687,-49.7191,-0.25574833,0.008028043,2.2460022,0.15100399,-0.001666635,-0.15904655,0.026139474,-0.005967029,0.0119490735,-0.037355017,0.024454648,1.3775809,-4.859537,1.5538497,0.05086324,202.30101,50.58364,0.34039772,0.29639018,0.13789216,0.101095274,inf,inf,inf,inf,1,1,1,1,10,13,2,2,4,1,1,1,0,0,0
453485833,453484051,423422529,43.781866099999995,-79.4664899,-0.04449185,-0.020381521,-49.703186,-0.25574833,0.008028043,2.2460022,0.14376383,0.012118143,-0.21642543,-0.01945082,-0.005967029,0.0119490735,-0.037355017,3.2037063,0.5322069,-1.6256253,1.5553242,0.05086324,202.30101,50.567726,0.34872714,0.30123323,0.14275405,0.1028269,inf,inf,inf,inf,1,1,1,1,10,13,2,2,4,1,1,1,0,0,0
453584906,453583232,423422529,43.781866099999995,-79.4664899,-0.036173377,-0.02353577,-49.672348,-0.25574833,0.008028043,2.2460022,0.12511852,0.0122237345,-0.19200222,0.03296415,-0.005967029,0.0119490735,-0.037355017,-1.4102268,0.5745274,0.51805806,1.554195,0.05086324,202.30101,50.53689,0.3403307,0.29606125,0.13880035,0.10095529,inf,inf,inf,inf,1,1,1,1,10,13,2,2,4,1,1,1,0,0,0
453684282,453682413,423422529,43.781866099999995,-79.4664899,-0.027600873,-0.025650587,-49.658257,-0.25574833,0.008028043,2.2460022,0.11354855,0.01761346,-0.23580435,-0.0017928642,-0.005967029,0.0119490735,-0.037355017,-0.17414016,1.2639763,-4.491388,1.5531403,0.05086324,202.30101,50.522797,0.348687,0.30088392,0.1435597,0.1026736,inf,inf,inf,inf,1,1,1,1,10,13,2,2,4,1,1,1,0,0,0
453783325,453781594,423422529,43.781866099999995,-79.4664899,-0.021748288,-0.027188115,-49.6345,-0.25574833,0.008028043,2.2460022,0.10695802,0.038749695,-0.29433534,-0.037214547,-0.005967029,0.0119490735,-0.037355017,-1.2356007,1.8444471,-7.586202,1.551701,0.05086324,202.30101,50.49904,0.34027854,0.2957361,0.13942006,0.10081129,inf,inf,inf,inf,1,1,1,1,10,13,2,2,4,1,1,1,0,0,0
453882464,453880775,423422529,43.781866099999995,-79.4664899,-0.014441089,-0.02583098,-49.629677,-0.25574833,0.008028043,2.2460022,0.10336044,0.05676292,-0.32287607,-0.060496487,-0.005967029,0.0119490735,-0.037355017,-0.09719027,3.7435188,-8.19656,1.5496999,0.05086324,202.30101,50.494217,0.34866032,0.30164772,0.14438389,0.10270248,inf,inf,inf,inf,1,1,1,1,10,13,2,2,4,1,1,1,0,0,0
453981421,453979956,423422529,43.781866099999995,-79.4664899,-0.009871539,-0.024257584,-49.61594,-0.25574833,0.008028043,2.2460022,0.10768341,0.07519869,-0.34548834,-0.06677937,-0.005967029,0.0119490735,-0.037355017,2.8753006,2.2096431,-6.436491,1.54703,0.05086324,202.30101,50.48048,0.34016183,0.29643047,0.13997152,0.10081465,inf,inf,inf,inf,1,1,1,1,10,13,2,2,4,1,1,1,0,0,0
454080833,454079136,423422529,43.781866099999995,-79.4664899,-0.004376833,-0.021908036,-49.616646,-0.25574833,0.008028043,2.2460022,0.10396008,0.0637755,-0.3620857,-0.08243191,-0.005967029,0.0119490735,-0.037355017,3.5694213,-1.5041314,-1.113459,1.5456973,0.05086324,202.30101,50.481186,0.34855825,0.30127215,0.14470191,0.10253507,inf,inf,inf,inf,1,1,1,1,10,13,2,2,4,1,1,1,0,0,0
454180792,454178319,423422529,43.781866099999995,-79.4664899,-0.0025545587,-0.0196841,-49.608456,-0.25574833,0.008028043,2.2460022,0.0970485,0.06362773,-0.37431243,-0.081918254,-0.005967029,0.0119490735,-0.037355017,2.1987822,-2.6445394,3.9108365,1.5444473,0.05086324,202.30101,50.472996,0.3400614,0.29608163,0.14021814,0.10066776,inf,inf,inf,inf,1,1,1,1,10,13,2,2,4,1,1,1,0,0,0
454279213,454277498,423422529,43.781866099999995,-79.4664899,0.00039366662,-0.016952999,-49.61342,-0.25574833,0.008028043,2.2460022,0.085234106,0.044382654,-0.3632943,-0.07144403,-0.005967029,0.0119490735,-0.037355017,-0.7068534,-2.299389,4.8499355,1.5430273,0.05086324,202.30101,50.47796,0.3484695,0.30089763,0.14514196,0.10237999,inf,inf,inf,inf,1,1,1,1,10,13,2,2,4,1,1,1,0,0,0
454379189,454376679,423422529,43.781866099999995,-79.4664899,-0.0025939979,-0.014530304,-49.60817,-0.25574833,0.008028043,2.2460022,0.057508264,0.051436502,-0.40180922,-0.0989139,-0.005967029,0.0119490735,-0.037355017,-2.610616,0.82884425,-1.6109136,1.5434489,0.05086324,202.30101,50.47271,0.33997422,0.29573402,0.14060186,0.10052702,inf,inf,inf,inf,1,1,1,1,10,13,2,2,4,1,1,1,0,0,0
454486363,454484893,423422529,43.781866099999995,-79.4664899,-0.004295731,-0.0101801185,-49.61946,-0.25574833,0.008028043,2.2460022,0.054512363,0.070845984,-0.42199534,-0.12235013,-0.005967029,0.0119490735,-0.037355017,-1.4575651,2.3531487,-4.5022316,1.5449767,0.05086324,202.30101,50.484,0.34918278,0.30117697,0.145857,0.1024295,inf,inf,inf,inf,1,1,1,1,10,13,2,2,4,1,1,1,0,0,0
454577017,454575040,423422529,43.781866099999995,-79.4664899,-0.008156456,-0.0031661517,-49.6186,-0.25574833,0.008028043,2.2460022,0.05286979,0.086106904,-0.4221403,-0.113822035,-0.005967029,0.0119490735,-0.037355017,-0.8207508,-0.15460333,-0.86805063,1.545833,0.05086324,202.30101,50.48314,0.33990175,0.29538724,0.14078087,0.100389935,inf,inf,inf,inf,1,1,1,1,10,13,2,2,4,1,1,1,0,0,0
454685079,454683237,423422529,43.781866099999995,-79.4664899,-0.00982667,0.005872749,-49.634457,-0.25574833,0.008028043,2.2460022,0.057142127,0.06899745,-0.41716403,-0.1158551,-0.005967029,0.0119490735,-0.037355017,2.9844093,-0.74966943,-4.3159456,1.5461679,0.05086324,202.30101,50.498997,0.34912065,0.30081308,0.14590679,0.10228414,inf,inf,inf,inf,1,1,1,1,10,13,2,2,4,1,1,1,0,0,0
454784253,454782417,423422529,43.781866099999995,-79.4664899,-0.015704826,0.009711289,-49.631844,-0.25574833,0.008028043,2.2460022,0.05404718,0.06793118,-0.38089105,-0.071260795,-0.005967029,0.0119490735,-0.037355017,-1.3392174,0.7540071,-2.585989,1.5469909,0.05086324,202.30101,50.496384,0.34058183,0.2956723,0.14095949,0.10044822,inf,inf,inf,inf,1,1,1,1,10,13,2,2,4,1,1,1,0,0,0
454883311,454881598,423422529,43.781866099999995,-79.4664899,-0.018214174,0.014009006,-49.645695,-0.25574833,0.008028043,2.2460022,0.07013708,0.067034505,-0.39988303,-0.09895508,-0.005967029,0.0119490735,-0.037355017,4.1235204,-1.2143368,0.060219273,1.5478264,0.05086324,202.30101,50.510235,0.34905353,0.30155888,0.14568119,0.102328405,inf,inf,inf,inf,1,1,1,1,10,13,2,2,4,1,1,1,0,0,0
454982292,454980781,423422529,43.781866099999995,-79.4664899,-0.02400495,0.019166525,-49.644913,-0.25574833,0.008028043,2.2460022,0.06119712,0.07181833,-0.39906284,-0.092094146,-0.005967029,0.0119490735,-0.037355017,1.3669887,2.9883142,-7.613579,1.548539,0.05086324,202.30101,50.509453,0.34058818,0.29641983,0.14088994,0.100510135,inf,inf,inf,inf,1,1,1,1,10,13,2,2,4,1,1,1,0,0,0
455083178,455079962,423422529,43.781866099999995,-79.4664899,-0.025989385,0.02367445,-49.65983,-0.25574833,0.008028043,2.2460022,0.046675958,0.042951174,-0.34860653,-0.05174465,-0.005967029,0.0119490735,-0.037355017,-4.7364187,-1.0707494,5.7714643,1.5496786,0.05086324,202.30101,50.52437,0.3490692,0.30124128,0.14557627,0.10221857,inf,inf,inf,inf,1,1,1,1,10,13,2,2,4,1,1,1,0,0,0
455182237,455179143,423422529,43.781866099999995,-79.4664899,-0.03610087,0.025735397,-49.660263,-0.25574833,0.008028043,2.2460022,0.0643886,0.048040047,-0.38423684,-0.0834429,-0.005967029,0.0119490735,-0.037355017,3.6152697,-0.3106371,-2.4258463,1.5517387,0.05086324,202.30101,50.524803,0.34053588,0.2960868,0.14082123,0.10038802,inf,inf,inf,inf,1,1,1,1,10,13,2,2,4,1,1,1,0,0,0
455280351,455278323,423422529,43.781866099999995,-79.4664899,-0.04231286,0.027871693,-49.6753,-0.25574833,0.008028043,2.2460022,0.05912956,0.032697853,-0.36939263,-0.07852911,-0.005967029,0.0119490735,-0.037355017,3.8557396,-1.6991657,0.38382065,1.5532576,0.05086324,202.30101,50.53984,0.3490156,0.30088934,0.14537519,0.10209857,inf,inf,inf,inf,1,1,1,1,10,13,2,2,4,1,1,1,0,0,0
455379520,455377501,423422529,43.781866099999995,-79.4664899,-0.05297943,0.029461654,-49.675926,-0.25574833,0.008028043,2.2460022,0.05907766,0.017013239,-0.33260942,-0.03896595,-0.005967029,0.0119490735,-0.037355017,3.4808903,-2.3742764,1.6576604,1.5554225,0.05086324,202.30101,50.540466,0.340427,0.29572695,0.14039618,0.10025702,inf,inf,inf,inf,1,1,1,1,10,13,2,2,4,1,1,1,0,0,0
455487227,455485698,423422529,43.781866099999995,-79.4664899,-0.060341496,0.03054734,-49.684418,-0.25574833,0.008028043,2.2460022,0.06706398,0.01587434,-0.31538573,-0.029953633,-0.005967029,0.0119490735,-0.037355017,2.1376603,0.031375304,1.260729,1.5558783,0.05086324,202.30101,50.548958,0.34968978,0.3011505,0.14538477,0.10214616,inf,inf,inf,inf,1,1,1,1,10,13,2,2,4,1,1,1,0,0,0
455577734,455575863,423422529,43.781866099999995,-79.4664899,-0.07281857,0.028265182,-49.678814,-0.25574833,0.008028043,2.2460022,0.05924452,-0.014819139,-0.30928677,-0.016807215,-0.005967029,0.0119490735,-0.037355017,-0.3666037,-2.2319498,6.815725,1.55542,0.05086324,202.30101,50.543354,0.34032485,0.29536158,0.14005381,0.10012381,inf,inf,inf,inf,1,1,1,1,10,13,2,2,4,1,1,1,0,0,0
455686553,455684059,423422529,43.781866099999995,-79.4664899,-0.083730385,0.022427833,-49.68251,-0.25574833,0.008028043,2.2460022,0.041148845,-0.04531303,-0.1559174,0.13020763,-0.005967029,0.0119490735,-0.037355017,1.655615,-0.9045524,6.5958204,1.5567982,0.05086324,202.30101,50.54705,0.34957612,0.30076876,0.14501044,0.10201523,inf,inf,inf,inf,1,1,1,1,10,13,2,2,4,1,1,1,0,0,0
455785086,455783239,423422529,43.781866099999995,-79.4664899,-0.09949763,0.017241806,-49.62788,-0.25574833,0.008028043,2.2460022,-0.024059879,-0.03890195,0.5649799,0.8562884,-0.005967029,0.0119490735,-0.037355017,-1.2768809,-0.24273242,8.145381,1.5566928,0.05086324,202.30101,50.49242,0.3409126,0.29559207,0.13915986,0.10017609,inf,inf,inf,inf,1,1,1,1,10,13,2,2,4,1,1,1,0,0,0
455884040,455882419,423422529,43.781866099999995,-79.4664899,-0.11655702,0.013334327,-49.508923,-0.25574833,0.008028043,2.2460022,-0.06879304,-0.022824157,1.2985394,1.5853592,-0.005967029,0.0119490735,-0.037355017,0.44816864,1.2183429,5.0835214,1.553863,0.05086324,202.30101,50.373463,0.3493197,0.30035836,0.14033243,0.101884425,inf,inf,inf,inf,1,1,1,1,10,13,2,2,4,1,1,1,0,0,0
455983002,455981600,423422529,43.781866099999995,-79.4664899,-0.14066495,0.011277905,-49.333378,-0.25574833,0.008028043,2.2460022,-0.103818975,-0.009061917,2.0382874,2.3043199,-0.005967029,0.0119490735,-0.037355017,-0.30186674,1.9306726,4.4126277,1.5488005,0.05086324,202.30101,50.197918,0.34076932,0.29626286,0.1332701,0.10022958,inf,inf,inf,inf,1,1,1,1,10,13,2,2,4,1,1,1,0,0,0
456082300,456080781,423422529,43.781866099999995,-79.4664899,-0.16481888,0.010908157,-49.096,-0.25574833,0.008028043,2.2460022,-0.1386844,-0.0013994329,2.7737567,3.0116494,-0.005967029,0.0119490735,-0.037355017,-0.10670995,-0.29990602,8.48944,1.5422088,0.05086324,202.30101,49.96054,0.34896368,0.3010676,0.13502453,0.10194388,inf,inf,inf,inf,1,1,1,1,10,13,2,2,4,1,1,1,0,0,0
456181629,456179961,423422529,43.781866099999995,-79.4664899,-0.19814317,0.009019364,-48.812435,-0.25574833,0.008028043,2.2460022,-0.1764201,0.009167688,3.4411805,3.63053,-0.005967029,0.0119490735,-0.037355017,-0.33818027,-1.2450037,8.142952,1.5352582,0.05086324,202.30101,49.676975,0.34058246,0.29588923,0.12932935,0.10011549,inf,inf,inf,inf,1,1,1,1,10,13,2,2,4,1,1,1,0,0,0
456281136,456279153,423422529,43.781866099999995,-79.4664899,-0.23118626,0.008108493,-48.46944,-0.25574833,0.008028043,2.2460022,-0.20827225,0.016748998,4.1115503,4.252093,-0.005967029,0.0119490735,-0.037355017,0.5019088,-0.09484656,9.37423,1.5308529,0.05086324,202.30101,49.33398,0.34859025,0.3006803,0.13182645,0.10182451,inf,inf,inf,inf,1,1,1,1,10,13,2,2,4,1,1,1,0,0,0
456381320,456378322,423422529,43.781866099999995,-79.4664899,-0.2721251,0.011346579,-48.081154,-0.25574833,0.008028043,2.2460022,-0.23041071,0.018421022,4.7169266,4.7962074,-0.005967029,0.0119490735,-0.037355017,0.5235986,-0.005750119,5.497151,1.5307183,0.05086324,202.30101,48.945694,0.34033415,0.2955382,0.12725107,0.10000994,inf,inf,inf,inf,1,1,1,1,10,13,2,2,4,1,1,1,0,0,0
456479511,456477503,423422529,43.781866099999995,-79.4664899,-0.31165016,0.015225719,-47.635677,-0.25574833,0.008028043,2.2460022,-0.26396516,0.02419353,5.2863383,5.310632,-0.005967029,0.0119490735,-0.037355017,-1.8765907,-0.72726434,7.5859933,1.5332831,0.05086324,202.30101,48.500217,0.3481924,0.3003068,0.13028376,0.10171155,inf,inf,inf,inf,1,1,1,1,10,13,2,2,4,1,1,1,0,0,0
456579346,456576686,423422529,43.781866099999995,-79.4664899,-0.35922682,0.023766601,-47.146698,-0.25574833,0.008028043,2.2460022,-0.281846,0.023623921,5.8334804,5.7971797,-0.005967029,0.0119490735,-0.037355017,-0.94124067,0.31448254,5.158803,1.5377084,0.05086324,202.30101,48.01124,0.340059,0.29519084,0.12637833,0.09990236,inf,inf,inf,inf,1,1,1,1,10,13,2,2,4,1,1,1,0,0,0
456677697,456675865,423422529,43.781866099999995,-79.4664899,-0.40455592,0.03153961,-46.603188,-0.25574833,0.008028043,2.2460022,-0.29943058,0.021729438,6.3292627,6.242115,-0.005967029,0.0119490735,-0.037355017,-0.5959676,0.7815152,3.6864285,1.5429467,0.05086324,202.30101,47.467728,0.3478089,0.29994604,0.12975739,0.101598985,inf,inf,inf,inf,1,1,1,1,10,13,2,2,4,1,1,1,0,0,0
456786083,456784059,423422529,43.781866099999995,-79.4664899,-0.46170694,0.040472325,-45.958897,-0.25574833,0.008028043,2.2460022,-0.3166306,0.0211355,6.8456326,6.7050943,-0.005967029,0.0119490735,-0.037355017,1.3601831,0.890782,2.673957,1.5489264,0.05086324,202.30101,46.823437,0.34044302,0.29546568,0.12648095,0.099979766,inf,inf,inf,inf,1,1,1,1,10,13,2,2,4,1,1,1,0,0,0
456885098,456883245,423422529,43.781866099999995,-79.4664899,-0.5111589,0.047356974,-45.317806,-0.25574833,0.008028043,2.2460022,-0.34056523,0.017772729,7.306887,7.125597,-0.005967029,0.0119490735,-0.037355017,-0.1912793,-0.29168874,4.0857263,1.5545155,0.05086324,202.30101,46.182346,0.34815297,0.30022538,0.13003798,0.10167403,inf,inf,inf,inf,1,1,1,1,10,13,2,2,4,1,1,1,0,0,0
456983881,456982420,423422529,43.781866099999995,-79.4664899,-0.5653004,0.055051297,-44.630127,-0.25574833,0.008028043,2.2460022,-0.354728,0.015331216,7.743721,7.5278935,-0.005967029,0.0119490735,-0.037355017,0.6206109,0.44788733,2.55129,1.5591638,0.05086324,202.30101,45.494667,0.34013146,0.2961817,0.12657887,0.10004492,inf,inf,inf,inf,1,1,1,1,10,13,2,2,4,1,1,1,0,0,0
457083101,457081601,423422529,43.781866099999995,-79.4664899,-0.6152503,0.060688652,-43.897385,-0.25574833,0.008028043,2.2460022,-0.36469296,0.00605711,8.161243,7.9176774,-0.005967029,0.0119490735,-0.037355017,-0.13478795,-0.4827368,4.5926595,1.5640811,0.05086324,202.30101,44.761925,0.34779528,0.30097538,0.13020408,0.10174672,inf,inf,inf,inf,1,1,1,1,10,13,2,2,4,1,1,1,0,0,0
457182401,457180788,423422529,43.781866099999995,-79.4664899,-0.6693135,0.069338016,-43.11911,-0.25574833,0.008028043,2.2460022,-0.36915123,0.007806379,8.530025,8.267583,-0.005967029,0.0119490735,-0.037355017,-0.19420354,0.2956177,2.3128953,1.5706974,0.05086324,202.30101,43.98365,0.33984488,0.29585886,0.12677482,0.099944584,inf,inf,inf,inf,1,1,1,1,10,13,2,2,4,1,1,1,0,0,0
457281957,457279967,423422529,43.781866099999995,-79.4664899,-0.71824574,0.07596933,-42.304585,-0.25574833,0.008028043,2.2460022,-0.3582396,0.0003548015,8.862516,8.5840225,-0.005967029,0.0119490735,-0.037355017,0.7991476,-0.5712381,0.7864065,1.5780472,0.05086324,202.30101,43.169125,0.34748554,0.30063924,0.13038416,0.10163731,inf,inf,inf,inf,1,1,1,1,10,13,2,2,4,1,1,1,0,0,0
457380909,457379141,423422529,43.781866099999995,-79.4664899,-0.7691721,0.08371382,-41.448586,-0.25574833,0.008028043,2.2460022,-0.34356764,-0.0033901809,9.095671,8.81548,-0.005967029,0.0119490735,-0.037355017,-0.4373541,-0.02614183,1.8008031,1.5856065,0.05086324,202.30101,42.313126,0.3395767,0.295541,0.12685886,0.099837825,inf,inf,inf,inf,1,1,1,1,10,13,2,2,4,1,1,1,0,0,0
457481318,457478322,423422529,43.781866099999995,-79.4664899,-0.8137189,0.089773685,-40.5781,-0.25574833,0.008028043,2.2460022,-0.32845184,-0.0027208012,9.229224,8.944892,-0.005967029,0.0119490735,-0.037355017,0.44586647,-0.1927227,1.3922387,1.5920523,0.05086324,202.30101,41.44264,0.34722066,0.30030316,0.13033079,0.10152143,inf,inf,inf,inf,1,1,1,1,10,13,2,2,4,1,1,1,0,0,0
457580282,457577508,423422529,43.781866099999995,-79.4664899,-0.86192936,0.09551767,-39.675076,-0.25574833,0.008028043,2.2460022,-0.3133567,-0.013411254,9.325921,9.058154,-0.005967029,0.0119490735,-0.037355017,0.9850276,-0.64926416,1.5196828,1.599722,0.05086324,202.30101,40.539616,0.3393355,0.29522762,0.12671027,0.09973119,inf,inf,inf,inf,1,1,1,1,10,13,2,2,4,1,1,1,0,0,0
457679140,457676683,423422529,43.781866099999995,-79.4664899,-0.9038593,0.098746754,-38.771633,-0.25574833,0.008028043,2.2460022,-0.29689738,-0.016635453,9.403534,9.143062,-0.005967029,0.0119490735,-0.037355017,0.7244474,0.8019904,3.0719337,1.6077464,0.05086324,202.30101,39.636173,0.34701774,0.29997134,0.13020898,0.10141586,inf,inf,inf,inf,1,1,1,1,10,13,2,2,4,1,1,1,0,0,0
457786530,457784879,423422529,43.781866099999995,-79.4664899,-0.94461733,0.09985255,-37.750324,-0.25574833,0.008028043,2.2460022,-0.265796,-0.028468583,9.407568,9.183678,-0.005967029,0.0119490735,-0.037355017,0.75465924,0.5494713,0.7581207,1.6175021,0.05086324,202.30101,38.614864,0.33983707,0.29553208,0.12702204,0.09982005,inf,inf,inf,inf,1,1,1,1,10,13,2,2,4,1,1,1,0,0,0
457876485,457875043,423422529,43.781866099999995,-79.4664899,-0.97299904,0.099210195,-36.910187,-0.25574833,0.008028043,2.2460022,-0.24218075,-0.030838067,9.446339,9.235927,-0.005967029,0.0119490735,-0.037355017,-0.66572374,0.9989824,1.991737,1.6247182,0.05086324,202.30101,37.774727,0.346883,0.30074304,0.13036187,0.10150001,inf,inf,inf,inf,1,1,1,1,10,13,2,2,4,1,1,1,0,0,0
457985811,457983242,423422529,43.781866099999995,-79.4664899,-1.0033041,0.09771226,-35.870686,-0.25574833,0.008028043,2.2460022,-0.2106982,-0.032668486,9.446362,9.279323,-0.005967029,0.0119490735,-0.037355017,1.3233334,0.57391626,-2.6102412,1.6337653,0.05086324,202.30101,36.735226,0.339649,0.29623988,0.1273122,0.099885195,inf,inf,inf,inf,1,1,1,1,10,13,2,2,4,1,1,1,0,0,0
458083935,458082420,423422529,43.781866099999995,-79.4664899,-1.0260357,0.09520435,-34.932335,-0.25574833,0.008028043,2.2460022,-0.18985781,-0.039780393,9.421356,9.2748375,-0.005967029,0.0119490735,-0.037355017,-0.85992867,-0.23303312,-4.217321,1.641746,0.05086324,202.30101,35.796875,0.34746507,0.3010195,0.13123254,0.101584226,inf,inf,inf,inf,1,1,1,1,10,13,2,2,4,1,1,1,0,0,0
458183347,458181600,423422529,43.781866099999995,-79.4664899,-1.046723,0.09092837,-33.96137,-0.25574833,0.008028043,2.2460022,-0.16992976,-0.045638103,9.439244,9.343674,-0.005967029,0.0119490735,-0.037355017,-0.10059018,0.5608098,-1.5657494,1.6489356,0.05086324,202.30101,34.82591,0.33950034,0.29591167,0.1280457,0.09980058,inf,inf,inf,inf,1,1,1,1,10,13,2,2,4,1,1,1,0,0,0
458282637,458280783,423422529,43.781866099999995,-79.4664899,-1.0646325,0.08579526,-33.01129,-0.25574833,0.008028043,2.2460022,-0.16426824,-0.05341371,9.424519,9.353198,-0.005967029,0.0119490735,-0.037355017,-2.020567,-0.94762796,0.682064,1.6562444,0.05086324,202.30101,33.87583,0.3473647,0.3006771,0.13220061,0.1015033,inf,inf,inf,inf,1,1,1,1,10,13,2,2,4,1,1,1,0,0,0
458382540,458379961,423422529,43.781866099999995,-79.4664899,-1.0792037,0.07920623,-32.032738,-0.25574833,0.008028043,2.2460022,-0.13534582,-0.068014026,9.435295,9.414663,-0.005967029,0.0119490735,-0.037355017,0.12723912,-1.084655,0.4750412,1.6647427,0.05086324,202.30101,32.897278,0.339334,0.29555222,0.12905969,0.099709965,inf,inf,inf,inf,1,1,1,1,10,13,2,2,4,1,1,1,0,0,0
458482034,458479142,423422529,43.781866099999995,-79.4664899,-1.0906231,0.07141681,-31.073435,-0.25574833,0.008028043,2.2460022,-0.11408797,-0.07682872,9.447108,9.451133,-0.005967029,0.0119490735,-0.037355017,0.57479244,-0.5360687,-1.3030761,1.6722465,0.05086324,202.30101,31.937975,0.34724012,0.3003027,0.13347319,0.10141555,inf,inf,inf,inf,1,1,1,1,10,13,2,2,4,1,1,1,0,0,0
458581235,458578325,423422529,43.781866099999995,-79.4664899,-1.0929114,0.06276062,-30.077312,-0.25574833,0.008028043,2.2460022,-0.08314805,-0.088579476,9.4179125,9.47997,-0.005967029,0.0119490735,-0.037355017,0.71718353,0.3768241,-0.6369668,1.6762018,0.05086324,202.30101,30.941853,0.3392001,0.2952042,0.13027015,0.09963684,inf,inf,inf,inf,1,1,1,1,10,13,2,2,4,1,1,1,0,0,0
458680198,458677502,423422529,43.781866099999995,-79.4664899,-1.0928184,0.052856695,-29.101019,-0.25574833,0.008028043,2.2460022,-0.07280477,-0.09886831,9.405219,9.5019,-0.005967029,0.0119490735,-0.037355017,0.35071656,0.036253385,-2.8680954,1.6806179,0.05086324,202.30101,29.965559,0.347146,0.2999316,0.13499242,0.10134514,inf,inf,inf,inf,1,1,1,1,10,13,2,2,4,1,1,1,0,0,0
458778521,458776681,423422529,43.781866099999995,-79.4664899,-1.0895799,0.043853693,-28.104694,-0.25574833,0.008028043,2.2460022,-0.061771657,-0.1297148,9.388861,9.537436,-0.005967029,0.0119490735,-0.037355017,-1.3042903,-0.46457487,-0.48596403,1.6872123,0.05086324,202.30101,28.969234,0.3426047,0.29689276,0.13557093,0.10099956,inf,inf,inf,inf,1,1,1,1,10,13,2,2,4,1,1,1,0,0,0
458877479,458875861,423422529,43.781866099999995,-79.4664899,-1.0860887,0.031803444,-27.135786,-0.25574833,0.008028043,2.2460022,-0.04374779,-0.15724725,9.322578,9.493538,-0.005967029,0.0119490735,-0.037355017,1.2733427,0.20661288,-2.546333,1.6969544,0.05086324,202.30101,28.000326,0.35097256,0.30283332,0.1405316,0.10289358,inf,inf,inf,inf,1,1,1,1,10,13,2,2,4,1,1,1,0,0,0
458976466,458975042,423422529,43.781866099999995,-79.4664899,-1.0813254,0.017167674,-26.160595,-0.25574833,0.008028043,2.2460022,-0.03158968,-0.17333676,9.282,9.485241,-0.005967029,0.0119490735,-0.037355017,-1.5635124,-0.6967301,-1.1018718,1.7101513,0.05086324,202.30101,27.025135,0.34517887,0.2991108,0.13999203,0.102092244,inf,inf,inf,inf,1,1,1,1,10,13,2,2,4,1,1,1,0,0,0
459084978,459083238,423422529,43.781866099999995,-79.4664899,-1.0769823,-0.0007104075,-25.113514,-0.25574833,0.008028043,2.2460022,-0.015918009,-0.18375953,9.308365,9.527595,-0.005967029,0.0119490735,-0.037355017,1.6018509,0.5441987,-0.2635359,1.726355,0.05086324,202.30101,25.978054,0.3546884,0.3046992,0.14576225,0.104000255,inf,inf,inf,inf,1,1,1,1,10,13,2,2,4,1,1,1,0,0,0
459183949,459182418,423422529,43.781866099999995,-79.4664899,-1.0725574,-0.01861204,-24.116344,-0.25574833,0.008028043,2.2460022,0.013658382,-0.19830081,9.33547,9.599556,-0.005967029,0.0119490735,-0.037355017,2.115255,0.7321901,-0.08940811,1.7356324,0.05086324,202.30101,24.980885,0.34752,0.30031842,0.14328647,0.10272003,inf,inf,inf,inf,1,1,1,1,10,13,2,2,4,1,1,1,0,0,0
459283347,459281598,423422529,43.781866099999995,-79.4664899,-1.0659612,-0.038031932,-23.148035,-0.25574833,0.008028043,2.2460022,0.032138664,-0.20558935,9.30655,9.583997,-0.005967029,0.0119490735,-0.037355017,1.2669375,0.9776081,-1.9183079,1.7432975,0.05086324,202.30101,24.012575,0.35644794,0.3052845,0.14850852,0.1044472,inf,inf,inf,inf,1,1,1,1,10,13,2,2,4,1,1,1,0,0,0
459382309,459380778,423422529,43.781866099999995,-79.4664899,-1.0575485,-0.059160233,-22.13811,-0.25574833,0.008028043,2.2460022,0.040631186,-0.20423493,9.325992,9.656855,-0.005967029,0.0119490735,-0.037355017,0.09633933,-0.03370946,0.64042056,1.7429721,0.05086324,202.30101,23.00265,0.34772512,0.3001475,0.1446218,0.102662496,inf,inf,inf,inf,1,1,1,1,10,13,2,2,4,1,1,1,0,0,0
459481705,459479961,423422529,43.781866099999995,-79.4664899,-1.0499644,-0.08019282,-21.153376,-0.25574833,0.008028043,2.2460022,0.03263029,-0.20316325,9.3005705,9.6530695,-0.005967029,0.0119490735,-0.037355017,1.4882324,0.88779175,0.8428253,1.738477,0.05086324,202.30101,22.017916,0.35669178,0.30509886,0.1497941,0.104379274,inf,inf,inf,inf,1,1,1,1,10,13,2,2,4,1,1,1,0,0,0
459580849,459579138,423422529,43.781866099999995,-79.4664899,-1.0426447,-0.10404008,-20.149584,-0.25574833,0.008028043,2.2460022,0.026614469,-0.21845408,9.23468,9.631411,-0.005967029,0.0119490735,-0.037355017,-0.21070248,-1.3345679,0.96851075,1.7405443,0.05086324,202.30101,21.014124,0.34710747,0.29955274,0.14502229,0.10229493,inf,inf,inf,inf,1,1,1,1,10,13,2,2,4,1,1,1,0,0,0
459679939,459678318,423422529,43.781866099999995,-79.4664899,-1.0354141,-0.12790938,-19.185585,-0.25574833,0.008028043,2.2460022,0.03430427,-0.22378637,9.186023,9.587173,-0.005967029,0.0119490735,-0.037355017,-0.2619712,-0.8561588,-2.0878537,1.7519591,0.05086324,202.30101,20.050125,0.35602376,0.3044639,0.15071535,0.10400464,inf,inf,inf,inf,1,1,1,1,10,13,2,2,4,1,1,1,0,0,0
459779976,459777499,423422529,43.781866099999995,-79.4664899,-1.0278755,-0.152428,-18.22093,-0.25574833,0.008028043,2.2460022,0.10227052,-0.1748628,8.698344,9.128882,-0.005967029,0.0119490735,-0.037355017,1.2673985,0.4015403,-7.891051,1.7629946,0.05086324,202.30101,19.08547,0.34653434,0.29898039,0.14589256,0.101967864,inf,inf,inf,inf,1,1,1,1,10,13,2,2,4,1,1,1,0,0,0
459887471,459885694,423422529,43.781866099999995,-79.4664899,-1.0076432,-0.16762765,-17.269733,-0.25574833,0.008028043,2.2460022,0.20991227,-0.0591191,7.8274837,8.261711,-0.005967029,0.0119490735,-0.037355017,-0.9019355,0.5140626,-8.1560335,1.7242224,0.05086324,202.30101,18.134274,0.35628277,0.30451128,0.1554844,0.103896536,inf,inf,inf,inf,1,1,1,1,10,13,2,2,4,1,1,1,0,0,0
459977388,459975857,423422529,43.781866099999995,-79.4664899,-0.9899917,-0.17835525,-16.498318,-0.25574833,0.008028043,2.2460022,0.20822966,-0.078136206,7.1371565,7.6248803,-0.005967029,0.0119490735,-0.037355017,1.0072175,-0.78111815,-7.045565,1.6692183,0.05086324,202.30101,17.362858,0.3459972,0.29950255,0.1538917,0.10193272,inf,inf,inf,inf,1,1,1,1,10,13,2,2,4,1,1,1,0,0,0
460085714,460084054,423422529,43.781866099999995,-79.4664899,-0.96943384,-0.19618835,-15.68647,-0.25574833,0.008028043,2.2460022,0.2016616,-0.14553368,6.513479,7.012485,-0.005967029,0.0119490735,-0.037355017,0.49576354,-0.91155595,-5.632788,1.5987086,0.05086324,202.30101,16.55101,0.35591346,0.3050613,0.16532962,0.10385597,inf,inf,inf,inf,1,1,1,1,10,13,2,2,4,1,1,1,0,0,0
460185041,460183234,423422529,43.781866099999995,-79.4664899,-0.9483293,-0.22016321,-14.932579,-0.25574833,0.008028043,2.2460022,0.2164741,-0.154533,5.9914885,6.566309,-0.005967029,0.0119490735,-0.037355017,0.47264203,0.29250774,-6.332508,1.5344243,0.05086324,202.30101,15.79712,0.34644505,0.2996341,0.16214943,0.10191294,inf,inf,inf,inf,1,1,1,1,10,13,2,2,4,1,1,1,0,0,0
460283845,460282414,423422529,43.781866099999995,-79.4664899,-0.9259987,-0.24066186,-14.2813425,-0.25574833,0.008028043,2.2460022,0.21636328,-0.12220315,5.4095,6.0029645,-0.005967029,0.0119490735,-0.037355017,-1.6188533,1.5894732,-5.9443164,1.4830446,0.05086324,202.30101,15.145884,0.3556868,0.30451795,0.17170513,0.10365838,inf,inf,inf,inf,1,1,1,1,10,13,2,2,4,1,1,1,0,0,0
460385522,460381593,423422529,43.781866099999995,-79.4664899,-0.9005974,-0.25640768,-13.623908,-0.25574833,0.008028043,2.2460022,0.19675429,-0.099436514,4.88073,5.5529194,-0.005967029,0.0119490735,-0.037355017,-0.7703089,0.93930864,-8.21685,1.4394609,0.05086324,202.30101,14.488449,0.34608567,0.2991002,0.16719048,0.1016975,inf,inf,inf,inf,1,1,1,1,10,13,2,2,4,1,1,1,0,0,0
460482561,460480773,423422529,43.781866099999995,-79.4664899,-0.8774094,-0.26983714,-13.053052,-0.25574833,0.008028043,2.2460022,0.16360311,-0.10223488,4.422052,5.1265597,-0.005967029,0.0119490735,-0.037355017,-0.9250714,-0.04748229,-5.9547977,1.3989103,0.05086324,202.30101,13.917593,0.35541672,0.30395743,0.17687088,0.10342387,inf,inf,inf,inf,1,1,1,1,10,13,2,2,4,1,1,1,0,0,0
460581376,460579953,423422529,43.781866099999995,-79.4664899,-0.8569085,-0.2825157,-12.484449,-0.25574833,0.008028043,2.2460022,0.13161294,-0.067168556,3.972203,4.750186,-0.005967029,0.0119490735,-0.037355017,-0.63743496,1.4867116,-2.7721481,1.3812041,0.05086324,202.30101,13.34899,0.3456991,0.29854172,0.17020394,0.101431966,inf,inf,inf,inf,1,1,1,1,10,13,2,2,4,1,1,1,0,0,0
460681571,460679133,423422529,43.781866099999995,-79.4664899,-0.83924687,-0.289091,-11.988181,-0.25574833,0.008028043,2.2460022,0.11324891,-0.009583921,3.5958862,4.4056916,-0.005967029,0.0119490735,-0.037355017,0.33487704,1.0458361,-2.1249564,1.386019,0.05086324,202.30101,12.852722,0.35507047,0.30337197,0.17884043,0.103134155,inf,inf,inf,inf,1,1,1,1,10,13,2,2,4,1,1,1,0,0,0
460780969,460778314,423422529,43.781866099999995,-79.4664899,-0.82334006,-0.29602653,-11.49289,-0.25574833,0.008028043,2.2460022,0.13057469,0.0123711685,3.240033,4.1138477,-0.005967029,0.0119490735,-0.037355017,0.3350701,0.14591476,-3.6186152,1.4036597,0.05086324,202.30101,12.357431,0.34537357,0.2980033,0.17108533,0.10117233,inf,inf,inf,inf,1,1,1,1,10,13,2,2,4,1,1,1,0,0,0
460879135,460877492,423422529,43.781866099999995,-79.4664899,-0.80633456,-0.3012216,-11.071358,-0.25574833,0.008028043,2.2460022,0.1282301,0.013388814,2.8495355,3.74425,-0.005967029,0.0119490735,-0.037355017,0.24470174,-0.43666697,-4.1616516,1.4167066,0.05086324,202.30101,11.935899,0.35475162,0.3039338,0.17923774,0.10309032,inf,inf,inf,inf,1,1,1,1,10,13,2,2,4,1,1,1,0,0,0
460978124,460976671,423422529,43.781866099999995,-79.4664899,-0.79772717,-0.30501524,-10.672382,-0.25574833,0.008028043,2.2460022,0.10364833,-0.0016072751,2.3317034,3.2677205,-0.005967029,0.0119490735,-0.037355017,-0.14516307,0.3972832,-6.3333054,1.4304541,0.05086324,202.30101,11.536923,0.34508124,0.2985519,0.17128502,0.10115263,inf,inf,inf,inf,1,1,1,1,10,13,2,2,4,1,1,1,0,0,0
461078962,461075850,423422529,43.781866099999995,-79.4664899,-0.7911235,-0.30841598,-10.362882,-0.25574833,0.008028043,2.2460022,0.084447645,-0.00089374464,1.8395066,2.7744875,-0.005967029,0.0119490735,-0.037355017,0.11228056,0.26206368,-4.506817,1.4509981,0.05086324,202.30101,11.227423,0.3544724,0.30338275,0.18020971,0.102874324,inf,inf,inf,inf,1,1,1,1,10,13,2,2,4,1,1,1,0,0,0
461185699,461184046,423422529,43.781866099999995,-79.4664899,-0.7943357,-0.3085508,-10.051903,-0.25574833,0.008028043,2.2460022,0.056010053,0.02403817,1.3448733,2.3065383,-0.005967029,0.0119490735,-0.037355017,0.09759831,-0.29438853,-4.067605,1.4654253,0.05086324,202.30101,10.916444,0.34563425,0.29866832,0.17319292,0.10113335,inf,inf,inf,inf,1,1,1,1,10,13,2,2,4,1,1,1,0,0,0
461286627,461283226,423422529,43.781866099999995,-79.4664899,-0.79864365,-0.30675542,-9.8443775,-0.25574833,0.008028043,2.2460022,0.02808994,0.027407974,1.0250505,1.9718989,-0.005967029,0.0119490735,-0.037355017,-1.6078273,0.8961993,-2.9305558,1.4765505,0.05086324,202.30101,10.708919,0.35512397,0.30349082,0.18121277,0.102850094,inf,inf,inf,inf,1,1,1,1,10,13,2,2,4,1,1,1,0,0,0
461384012,461382406,423422529,43.781866099999995,-79.4664899,-0.8128511,-0.30650398,-9.634139,-0.25574833,0.008028043,2.2460022,0.008048277,0.041613735,0.8164996,1.7787341,-0.005967029,0.0119490735,-0.037355017,0.9442465,-0.63935864,0.69905424,1.4876282,0.05086324,202.30101,10.49868,0.3454046,0.29817045,0.17181017,0.10094474,inf,inf,inf,inf,1,1,1,1,10,13,2,2,4,1,1,1,0,0,0
461483393,461481585,423422529,43.781866099999995,-79.4664899,-0.82550496,-0.30445915,-9.477369,-0.25574833,0.008028043,2.2460022,-0.022224009,0.057916977,0.68193966,1.6222265,-0.005967029,0.0119490735,-0.037355017,-0.4148849,2.3769817,-3.9288409,1.4946387,0.05086324,202.30101,10.34191,0.3548549,0.30296794,0.17786472,0.10266446,inf,inf,inf,inf,1,1,1,1,10,13,2,2,4,1,1,1,0,0,0
461582480,461580765,423422529,43.781866099999995,-79.4664899,-0.84974796,-0.29699567,-9.316793,-0.25574833,0.008028043,2.2460022,-0.046567947,0.06319336,0.62734056,1.5610813,-0.005967029,0.0119490735,-0.037355017,-1.089923,2.344779,-5.960061,1.4996195,0.05086324,202.30101,10.1813345,0.34513232,0.29766017,0.16754323,0.10077431,inf,inf,inf,inf,1,1,1,1,10,13,2,2,4,1,1,1,0,0,0
461681358,461679944,423422529,43.781866099999995,-79.4664899,-0.87327933,-0.28825572,-9.185896,-0.25574833,0.008028043,2.2460022,-0.07522069,0.07782849,0.58350354,1.4862014,-0.005967029,0.0119490735,-0.037355017,0.82787764,2.1669698,-4.9434137,1.5035467,0.05086324,202.30101,10.050437,0.35447538,0.30243757,0.17233722,0.1024945,inf,inf,inf,inf,1,1,1,1,10,13,2,2,4,1,1,1,0,0,0
461780785,461779125,423422529,43.781866099999995,-79.4664899,-0.9085066,-0.27536634,-9.054159,-0.25574833,0.008028043,2.2460022,-0.10362253,0.092471816,0.56316555,1.4424697,-0.005967029,0.0119490735,-0.037355017,0.91722757,0.035086196,-0.95664406,1.507921,0.05086324,202.30101,9.9187,0.34488434,0.29716754,0.16243003,0.10061228,inf,inf,inf,inf,1,1,1,1,10,13,2,2,4,1,1,1,0,0,0
461880213,461878303,423422529,43.781866099999995,-79.4664899,-0.94157386,-0.26100075,-8.9496155,-0.25574833,0.008028043,2.2460022,-0.12067669,0.11002029,0.5217378,1.3574072,-0.005967029,0.0119490735,-0.037355017,0.7468542,0.15630916,-3.3253388,1.51207,0.05086324,202.30101,9.814157,0.3541041,0.30192167,0.16685657,0.10232413,inf,inf,inf,inf,1,1,1,1,10,13,2,2,4,1,1,1,0,0,0
461980690,461977497,423422529,43.781866099999995,-79.4664899,-0.9862565,-0.24261549,-8.852372,-0.25574833,0.008028043,2.2460022,-0.13137172,0.12059465,0.48945537,1.2830303,-0.005967029,0.0119490735,-0.037355017,0.73566,-0.6847964,0.56452894,1.5152459,0.05086324,202.30101,9.716913,0.34463882,0.29775938,0.15798616,0.10064561,inf,inf,inf,inf,1,1,1,1,10,13,2,2,4,1,1,1,0,0,0
462078286,462076667,423422529,43.781866099999995,-79.4664899,-1.0263731,-0.22427681,-8.776015,-0.25574833,0.008028043,2.2460022,-0.13982289,0.11825256,0.47958073,1.2185155,-0.005967029,0.0119490735,-0.037355017,0.5624833,-1.4391369,1.661463,1.5174971,0.05086324,202.30101,9.640556,0.35374427,0.30254874,0.16230813,0.102377936,inf,inf,inf,inf,1,1,1,1,10,13,2,2,4,1,1,1,0,0,0
462188047,462184858,423422529,43.781866099999995,-79.4664899,-1.0813004,-0.2000301,-8.695145,-0.25574833,0.008028043,2.2460022,-0.15399143,0.12555303,0.45093307,1.1368643,-0.005967029,0.0119490735,-0.037355017,2.0238557,-0.9909101,-0.3829038,1.5165333,0.05086324,202.30101,9.559686,0.34518954,0.2979281,0.15440077,0.100724034,inf,inf,inf,inf,1,1,1,1,10,13,2,2,4,1,1,1,0,0,0
462276630,462275023,423422529,43.781866099999995,-79.4664899,-1.1219413,-0.18152446,-8.639253,-0.25574833,0.008028043,2.2460022,-0.17087658,0.11418392,0.44202238,1.0793996,-0.005967029,0.0119490735,-0.037355017,-1.0056186,0.10830651,-0.7154524,1.5149363,0.05086324,202.30101,9.503794,0.35338986,0.30207816,0.15817302,0.10226971,inf,inf,inf,inf,1,1,1,1,10,13,2,2,4,1,1,1,0,0,0
462384981,462383216,423422529,43.781866099999995,-79.4664899,-1.1834155,-0.15898722,-8.579161,-0.25574833,0.008028043,2.2460022,-0.18708463,0.096146636,0.40517265,0.9859594,-0.005967029,0.0119490735,-0.037355017,1.7152377,-0.8433405,-1.0203282,1.515767,0.05086324,202.30101,9.443702,0.3449457,0.297484,0.15089281,0.100625075,inf,inf,inf,inf,1,1,1,1,10,13,2,2,4,1,1,1,0,0,0
462484062,462482395,423422529,43.781866099999995,-79.4664899,-1.2331115,-0.14217295,-8.536224,-0.25574833,0.008028043,2.2460022,-0.19253229,0.07872793,0.38480672,0.9107759,-0.005967029,0.0119490735,-0.037355017,1.5253055,-1.1347764,0.92110074,1.5160806,0.05086324,202.30101,9.400765,0.3538867,0.30225196,0.15484925,0.10235248,inf,inf,inf,inf,1,1,1,1,10,13,2,2,4,1,1,1,0,0,0
462583614,462581585,423422529,43.781866099999995,-79.4664899,-1.2939601,-0.12230739,-8.496716,-0.25574833,0.008028043,2.2460022,-0.19903767,0.061689477,0.35766554,0.8337166,-0.005967029,0.0119490735,-0.037355017,2.2406254,-1.0990126,-0.6319197,1.516258,0.05086324,202.30101,9.361257,0.34470057,0.29705182,0.14786714,0.10053315,inf,inf,inf,inf,1,1,1,1,10,13,2,2,4,1,1,1,0,0,0
462683312,462680767,423422529,43.781866099999995,-79.4664899,-1.3454291,-0.107207336,-8.465684,-0.25574833,0.008028043,2.2460022,-0.20075026,0.04306153,0.3358302,0.7623032,-0.005967029,0.0119490735,-0.037355017,1.1326262,-0.15572035,1.3762895,1.5176128,0.05086324,202.30101,9.330225,0.35354432,0.30180633,0.15182589,0.10226219,inf,inf,inf,inf,1,1,1,1,10,13,2,2,4,1,1,1,0,0,0
462781746,462779933,423422529,43.781866099999995,-79.4664899,-1.409699,-0.091404505,-8.437228,-0.25574833,0.008028043,2.2460022,-0.2186493,0.049715526,0.33635202,0.71831274,-0.005967029,0.0119490735,-0.037355017,-0.99717325,3.0713315,-3.5619588,1.5175271,0.05086324,202.30101,9.301769,0.34443778,0.29661423,0.14543648,0.10045336,inf,inf,inf,inf,1,1,1,1,10,13,2,2,4,1,1,1,0,0,0
462881102,462879113,423422529,43.781866099999995,-79.4664899,-1.463911,-0.0787741,-8.40797,-0.25574833,0.008028043,2.2460022,-0.23107748,0.0341635,0.4638692,0.80159926,-0.005967029,0.0119490735,-0.037355017,-4.405032,1.0973586,4.2052264,1.5128956,0.05086324,202.30101,9.2725115,0.35319164,0.30135614,0.14915329,0.10219153,inf,inf,inf,inf,1,1,1,1,10,13,2,2,4,1,1,1,0,0,0
462981212,462978292,423422529,43.781866099999995,-79.4664899,-1.5264713,-0.06582144,-8.367474,-0.25574833,0.008028043,2.2460022,-0.2229855,0.031372376,0.62845284,0.92306113,-0.005967029,0.0119490735,-0.037355017,2.5032585,0.35117292,-0.560498,1.5062308,0.05086324,202.30101,9.232015,0.34411624,0.297227,0.14240889,0.100547776,inf,inf,inf,inf,1,1,1,1,10,13,2,2,4,1,1,1,0,0,0
