timestamp,timestamp_sample,ref_timestamp,ref_lat,ref_lon,x,y,z,delta_xy[0],delta_xy[1],delta_z,vx,vy,vz,z_deriv,delta_vxy[0],delta_vxy[1],delta_vz,ax,ay,az,heading,delta_heading,ref_alt,dist_bottom,eph,epv,evh,evv,vxy_max,vz_max,hagl_min,hagl_max,xy_valid,z_valid,v_xy_valid,v_z_valid,xy_reset_counter,z_reset_counter,vxy_reset_counter,vz_reset_counter,heading_reset_counter,heading_good_for_control,xy_global,z_global,dist_bottom_valid,dist_bottom_sensor_bitfield,dead_reckoning
993948178,993944899,989553489,43.781812599999995,-79.4664648,0.19896452,-0.06503455,0.22011186,-0.033358477,0.0802805,-1.4530041,0.026560556,-0.0015217306,0.04698213,0.05818081,-0.005967029,0.0119490735,-0.037355017,0.046874814,-0.10540246,-0.111528166,1.434335,0.05086324,189.69801,0.09516336,0.33131316,0.28853422,0.13246743,0.10177194,inf,inf,inf,inf,1,1,1,1,12,18,2,2,4,0,1,1,0,0,0
993955809,993953908,989553489,43.781812599999995,-79.4664648,0.19959523,-0.06512784,0.22068202,-0.033358477,0.0802805,-1.4530041,0.027233247,-0.0015652669,0.046179965,0.057436954,-0.005967029,0.0119490735,-0.037355017,0.073481,0.04165532,-0.202858,1.4343355,0.05086324,189.69801,0.09498918,0.33201507,0.28915042,0.13285412,0.10195811,inf,inf,inf,inf,1,1,1,1,12,18,2,2,4,0,1,1,0,0,0
994054730,994053098,989553489,43.781812599999995,-79.4664648,0.20571817,-0.06592911,0.22603047,-0.033358477,0.0802805,-1.4530041,0.02530621,-0.0008496113,0.04771683,0.058653902,-0.005967029,0.0119490735,-0.037355017,-0.10830904,0.056470845,0.20825282,1.4342927,0.05086324,189.69801,0.091406494,0.33998483,0.29405674,0.13706826,0.10369494,inf,inf,inf,inf,1,1,1,1,12,18,2,2,4,0,1,1,0,0,0
994153917,994152288,989553489,43.781812599999995,-79.4664648,0.21099368,-0.06661677,0.23099479,-0.033358477,0.0802805,-1.4530041,0.025413109,-0.0013360567,0.046991073,0.057297565,-0.005967029,0.0119490735,-0.037355017,0.020513462,-0.16070223,-0.26424733,1.4342126,0.05086324,189.69801,0.094700634,0.33180976,0.28883353,0.13278018,0.10161406,inf,inf,inf,inf,1,1,1,1,12,18,2,2,4,0,1,1,0,0,0
994253062,994251477,989553489,43.781812599999995,-79.4664648,0.21630977,-0.067659296,0.2350914,-0.033358477,0.0802805,-1.4530041,0.0248208,-0.0009819195,0.04593277,0.05482617,-0.005967029,0.0119490735,-0.037355017,-0.05649762,-0.094099835,-0.12664951,1.434178,0.05086324,189.69801,0.0886047,0.33977282,0.29373243,0.13699667,0.10335322,inf,inf,inf,inf,1,1,1,1,12,18,2,2,4,0,1,1,0,0,0
994352263,994350667,989553489,43.781812599999995,-79.4664648,0.22117814,-0.06858663,0.23784451,-0.033358477,0.0802805,-1.4530041,0.023788223,-0.0002169682,0.04403233,0.05059491,-0.005967029,0.0119490735,-0.037355017,0.0392193,0.014602617,-0.45710164,1.4341742,0.05086324,189.69801,0.093495324,0.3316029,0.288519,0.13271925,0.101298474,inf,inf,inf,inf,1,1,1,1,12,18,2,2,4,0,1,1,0,0,0
994451535,994449857,989553489,43.781812599999995,-79.4664648,0.22758393,-0.07027777,0.24207546,-0.033358477,0.0802805,-1.4530041,0.023961259,-0.0010354365,0.046171006,0.052056745,-0.005967029,0.0119490735,-0.037355017,-0.058981914,0.048494186,0.33785647,1.4340818,0.05086324,189.69801,0.090106204,0.33956036,0.29340422,0.13694082,0.1030387,inf,inf,inf,inf,1,1,1,1,12,18,2,2,4,0,1,1,0,0,0
994551822,994549047,989553489,43.781812599999995,-79.4664648,0.23300518,-0.0715474,0.24556945,-0.033358477,0.0802805,-1.4530041,0.0237004,-0.0011039119,0.041917898,0.04659864,-0.005967029,0.0119490735,-0.037355017,0.0048566526,-0.09198455,-0.35410577,1.4340067,0.05086324,189.69801,0.09469415,0.33141497,0.28821412,0.13267384,0.10101186,inf,inf,inf,inf,1,1,1,1,12,18,2,2,4,0,1,1,0,0,0
994649981,994648247,989553489,43.781812599999995,-79.4664648,0.23835908,-0.0725559,0.25032222,-0.033358477,0.0802805,-1.4530041,0.02237279,-0.001727663,0.04285452,0.047800966,-0.005967029,0.0119490735,-0.037355017,0.035776842,-0.14485724,0.042236213,1.4340056,0.05086324,189.69801,0.09174281,0.3393678,0.29308408,0.13689092,0.102753215,inf,inf,inf,inf,1,1,1,1,12,18,2,2,4,0,1,1,0,0,0
994750410,994747427,989553489,43.781812599999995,-79.4664648,0.24284938,-0.07332672,0.25364056,-0.033358477,0.0802805,-1.4530041,0.022228831,-0.00039265945,0.04078492,0.044670172,-0.005967029,0.0119490735,-0.037355017,0.101290084,-0.04651598,-0.15256028,1.433928,0.05086324,189.69801,0.09803599,0.33118993,0.28787974,0.13258542,0.10073025,inf,inf,inf,inf,1,1,1,1,12,18,2,2,4,0,1,1,0,0,0
994848490,994846616,989553489,43.781812599999995,-79.4664648,0.24800378,-0.07464678,0.25877804,-0.033358477,0.0802805,-1.4530041,0.021373,-0.0004949038,0.037684366,0.042504568,-0.005967029,0.0119490735,-0.037355017,0.09871131,-0.23061462,-0.22129339,1.4338126,0.05086324,189.69801,0.0941658,0.3391335,0.29376113,0.13679904,0.10264409,inf,inf,inf,inf,1,1,1,1,12,18,2,2,4,0,1,1,0,0,0
994957110,994954824,989553489,43.781812599999995,-79.4664648,0.2526893,-0.07588556,0.2631558,-0.033358477,0.0802805,-1.4530041,0.020385493,-0.00078335847,0.0359615,0.040706683,-0.005967029,0.0119490735,-0.037355017,0.35141218,-0.17786314,-1.4754573,1.4337527,0.05086324,189.69801,0.10015109,0.33166718,0.2891452,0.13289064,0.10082327,inf,inf,inf,inf,1,1,1,1,12,18,2,2,4,0,1,1,0,0,0
995046370,995044996,989553489,43.781812599999995,-79.4664648,0.25702566,-0.077335775,0.26796645,-0.033358477,0.0802805,-1.4530041,0.014397547,-0.0021397963,0.03820314,0.043903027,-0.005967029,0.0119490735,-0.037355017,-0.9151298,-0.7857154,-0.83954346,1.4337339,0.05086324,189.69801,0.09473112,0.33890006,0.2934169,0.13672864,0.102392636,inf,inf,inf,inf,1,1,1,1,12,18,2,2,4,0,1,1,0,0,0
995154827,995153205,989553489,43.781812599999995,-79.4664648,0.2615144,-0.0786967,0.27307907,-0.033358477,0.0802805,-1.4530041,0.01939032,-0.0010686903,0.044883393,0.050608598,-0.005967029,0.0119490735,-0.037355017,0.08551354,0.4212089,0.50066525,1.4336596,0.05086324,189.69801,0.09897444,0.33146074,0.28881586,0.13280056,0.10059588,inf,inf,inf,inf,1,1,1,1,12,18,2,2,4,0,1,1,0,0,0
995254065,995252393,989553489,43.781812599999995,-79.4664648,0.26587805,-0.07951779,0.27896297,-0.033358477,0.0802805,-1.4530041,0.016403344,-0.0011615112,0.04974375,0.056227833,-0.005967029,0.0119490735,-0.037355017,0.704187,0.44495437,-0.753259,1.4338679,0.05086324,189.69801,0.09341973,0.3394301,0.293709,0.13698608,0.10235796,inf,inf,inf,inf,1,1,1,1,12,18,2,2,4,0,1,1,0,0,0
995353186,995351583,989553489,43.781812599999995,-79.4664648,0.2698191,-0.08026032,0.2839058,-0.033358477,0.0802805,-1.4530041,0.0143075185,-0.0015580829,0.039769758,0.046140876,-0.005967029,0.0119490735,-0.037355017,0.84114,0.32944515,-1.9537961,1.4338326,0.05086324,189.69801,0.10056248,0.33127293,0.288489,0.13270906,0.100391716,inf,inf,inf,inf,1,1,1,1,12,18,2,2,4,0,1,1,0,0,0
995452568,995450773,989553489,43.781812599999995,-79.4664648,0.27575248,-0.08209257,0.29037943,-0.033358477,0.0802805,-1.4530041,0.018206147,-0.001687829,0.051975,0.05942411,-0.005967029,0.0119490735,-0.037355017,-0.020978134,0.018930063,-0.84554857,1.4338205,0.05086324,189.69801,0.09324697,0.3392363,0.29336756,0.13695572,0.10215622,inf,inf,inf,inf,1,1,1,1,12,18,2,2,4,0,1,1,0,0,0
995551879,995549965,989553489,43.781812599999995,-79.4664648,0.28083798,-0.08367249,0.29534334,-0.033358477,0.0802805,-1.4530041,0.020447034,-0.0005292672,0.04312666,0.049933128,-0.005967029,0.0119490735,-0.037355017,1.3045741,0.20818017,-3.1614976,1.4337476,0.05086324,189.69801,0.0977703,0.3310827,0.2881723,0.13264447,0.10021197,inf,inf,inf,inf,1,1,1,1,12,18,2,2,4,0,1,1,0,0,0
995651800,995649152,989553489,43.781812599999995,-79.4664648,0.28627616,-0.08552742,0.30188966,-0.033358477,0.0802805,-1.4530041,0.010282292,-0.0040350384,0.05946705,0.06694172,-0.005967029,0.0119490735,-0.037355017,-1.1947129,-0.3945561,0.5799226,1.4337211,0.05086324,189.69801,0.09331745,0.33904058,0.29302797,0.13690571,0.10197636,inf,inf,inf,inf,1,1,1,1,12,18,2,2,4,0,1,1,0,0,0
995750094,995748343,989553489,43.781812599999995,-79.4664648,0.29109555,-0.086855136,0.30672935,-0.033358477,0.0802805,-1.4530041,0.017078137,-0.002415629,0.058309685,0.06450226,-0.005967029,0.0119490735,-0.037355017,0.90960634,0.3022031,-2.8028255,1.4350289,0.05086324,189.69801,0.094875336,0.3309094,0.28785723,0.13261917,0.10005159,inf,inf,inf,inf,1,1,1,1,12,18,2,2,4,0,1,1,0,0,0
995848977,995847532,989553489,43.781812599999995,-79.4664648,0.29766834,-0.08786145,0.31209147,-0.033358477,0.0802805,-1.4530041,0.0009799514,-0.0010090221,0.04559668,0.051074997,-0.005967029,0.0119490735,-0.037355017,0.7134415,-0.2719721,-0.5364902,1.434736,0.05086324,189.69801,0.0906246,0.33886296,0.29372334,0.13676552,0.1019885,inf,inf,inf,inf,1,1,1,1,12,18,2,2,4,0,1,1,0,0,0
995957438,995955742,989553489,43.781812599999995,-79.4664648,0.30170116,-0.08893342,0.31502375,-0.033358477,0.0802805,-1.4530041,-0.0096092755,-0.009503211,0.044781927,0.048099764,-0.005967029,0.0119490735,-0.037355017,-0.54043835,-1.2203898,1.5168647,1.4339038,0.05086324,189.69801,0.095139414,0.33139867,0.28910092,0.13293296,0.10023696,inf,inf,inf,inf,1,1,1,1,12,18,2,2,4,0,1,1,0,0,0
996047519,996045912,989553489,43.781812599999995,-79.4664648,0.3034769,-0.08948226,0.31706002,-0.033358477,0.0802805,-1.4530041,-0.032541927,0.00049234723,0.027919158,0.02961602,-0.005967029,0.0119490735,-0.037355017,0.6970592,-0.57386744,-1.125452,1.4431295,0.05086324,189.69801,0.09310314,0.33864063,0.29336202,0.13675293,0.101827964,inf,inf,inf,inf,1,1,1,1,12,18,2,2,4,0,1,1,0,0,0
996155881,996154119,989553489,43.781812599999995,-79.4664648,0.30115703,-0.09038164,0.31511593,-0.033358477,0.0802805,-1.4530041,-0.08496849,-0.018504156,-0.019237561,-0.020156698,-0.005967029,0.0119490735,-0.037355017,-1.9765539,0.30524135,-1.0398297,1.4714814,0.05086324,189.69801,0.095047235,0.33125618,0.28879815,0.1329801,0.100116074,inf,inf,inf,inf,1,1,1,1,12,18,2,2,4,0,1,1,0,0,0
996255008,996253309,989553489,43.781812599999995,-79.4664648,0.2945853,-0.09242856,0.31255564,-0.033358477,0.0802805,-1.4530041,-0.13631406,-0.039090052,0.009319502,0.0069817705,-0.005967029,0.0119490735,-0.037355017,-0.13537838,0.5764309,-2.20425,1.4973742,0.05086324,189.69801,0.09775326,0.33924615,0.2936758,0.13733873,0.10189684,inf,inf,inf,inf,1,1,1,1,12,18,2,2,4,0,1,1,0,0,0
996354055,996352499,989553489,43.781812599999995,-79.4664648,0.282189,-0.097429946,0.31246722,-0.033358477,0.0802805,-1.4530041,-0.18719292,-0.07159512,0.03186846,0.028090796,-0.005967029,0.0119490735,-0.037355017,-3.5210307,0.41096845,0.8754492,1.5109072,0.05086324,189.69801,0.0994575,0.33107927,0.28846347,0.13292001,0.09998205,inf,inf,inf,inf,1,1,1,1,12,18,2,2,4,0,1,1,0,0,0
996453463,996451689,989553489,43.781812599999995,-79.4664648,0.26728162,-0.105805345,0.31074125,-0.033358477,0.0802805,-1.4530041,-0.23777184,-0.09109233,-0.040454105,-0.044523895,-0.005967029,0.0119490735,-0.037355017,-0.76298696,-0.008118865,0.6594498,1.5159887,0.05086324,189.69801,0.10140699,0.33906,0.29332635,0.137162,0.1017639,inf,inf,inf,inf,1,1,1,1,12,18,2,2,4,0,1,1,0,0,0
996552764,996550878,989553489,43.781812599999995,-79.4664648,0.2460184,-0.11570977,0.30032375,-0.033358477,0.0802805,-1.4530041,-0.3035459,-0.110252425,-0.14247203,-0.14711411,-0.005967029,0.0119490735,-0.037355017,-2.7931535,0.43181467,-2.9039652,1.5164645,0.05086324,189.69801,0.11540547,0.33090818,0.28813535,0.13310423,0.09986563,inf,inf,inf,inf,1,1,1,1,12,18,2,2,4,0,1,1,0,0,0
996651507,996650068,989553489,43.781812599999995,-79.4664648,0.22139254,-0.12650234,0.27893946,-0.033358477,0.0802805,-1.4530041,-0.33706653,-0.11702541,-0.32685262,-0.32930765,-0.005967029,0.0119490735,-0.037355017,0.6164424,0.36117625,-4.297244,1.5140541,0.05086324,189.69801,0.13678977,0.3388962,0.29298,0.13778248,0.10164903,inf,inf,inf,inf,1,1,1,1,12,18,2,2,4,0,1,1,0,0,0
996750964,996749258,989553489,43.781812599999995,-79.4664648,0.19165598,-0.1378144,0.23897293,-0.033358477,0.0802805,-1.4530041,-0.37878388,-0.11866045,-0.49724114,-0.49767914,-0.005967029,0.0119490735,-0.037355017,-1.0038784,1.2407287,-2.766816,1.5064106,0.05086324,189.69801,0.1767563,0.33074135,0.2878139,0.13397624,0.09976841,inf,inf,inf,inf,1,1,1,1,12,18,2,2,4,0,1,1,0,0,0
996850127,996848448,989553489,43.781812599999995,-79.4664648,0.15963995,-0.14863673,0.1923813,-0.033358477,0.0802805,-1.4530041,-0.40836903,-0.116165146,-0.5909112,-0.58298904,-0.005967029,0.0119490735,-0.037355017,0.13580252,0.15388618,-1.7861409,1.49882,0.05086324,189.69801,0.22334793,0.33875972,0.29366502,0.13891864,0.1017235,inf,inf,inf,inf,1,1,1,1,12,18,2,2,4,0,1,1,0,0,0
996950755,996947638,989553489,43.781812599999995,-79.4664648,0.12384709,-0.15895669,0.13579658,-0.033358477,0.0802805,-1.4530041,-0.4272941,-0.10300466,-0.6589534,-0.6469433,-0.005967029,0.0119490735,-0.037355017,0.40024278,1.24975,-2.9643462,1.4916549,0.05086324,189.69801,0.27993265,0.33057764,0.28843287,0.13460805,0.09982087,inf,inf,inf,inf,1,1,1,1,12,18,2,2,4,0,1,1,0,0,0
997048467,997046827,989553489,43.781812599999995,-79.4664648,0.09122979,-0.16573939,0.08059837,-0.033358477,0.0802805,-1.4530041,-0.42015466,-0.090760894,-0.6902304,-0.6691526,-0.005967029,0.0119490735,-0.037355017,2.0313544,-0.8804585,-1.5268044,1.4853882,0.05086324,189.69801,0.33513087,0.33860475,0.29330033,0.13909248,0.10162108,inf,inf,inf,inf,1,1,1,1,12,18,2,2,4,0,1,1,0,0,0
997148942,997146018,989553489,43.781812599999995,-79.4664648,0.057926256,-0.17189874,0.018579738,-0.033358477,0.0802805,-1.4530041,-0.41654974,-0.06519185,-0.71545935,-0.6906664,-0.005967029,0.0119490735,-0.037355017,0.26537696,0.8515346,-2.3355317,1.4792656,0.05086324,189.69801,0.39714947,0.33042386,0.28808615,0.13456528,0.09972973,inf,inf,inf,inf,1,1,1,1,12,18,2,2,4,0,1,1,0,0,0
997255960,997254224,989553489,43.781812599999995,-79.4664648,0.034398846,-0.1815566,-0.04747931,-0.033358477,0.0802805,-1.4530041,-0.384432,-0.049280368,-0.7371024,-0.70227486,-0.005967029,0.0119490735,-0.037355017,0.4177957,-0.39705408,2.6698139,1.4753366,0.05086324,189.69801,0.46320853,0.33919817,0.29356402,0.13938232,0.10172056,inf,inf,inf,inf,1,1,1,1,12,18,2,2,4,0,1,1,0,0,0
997355154,997353418,989553489,43.781812599999995,-79.4664648,0.011385599,-0.18867531,-0.11202571,-0.033358477,0.0802805,-1.4530041,-0.35864106,-0.03286533,-0.7254518,-0.68627447,-0.005967029,0.0119490735,-0.037355017,-0.8709629,0.64942586,0.8811362,1.4725554,0.05086324,189.69801,0.5277549,0.3309943,0.28835723,0.13479303,0.099840105,inf,inf,inf,inf,1,1,1,1,12,18,2,2,4,0,1,1,0,0,0
997454535,997452604,989553489,43.781812599999995,-79.4664648,-0.009953437,-0.19563589,-0.17576401,-0.033358477,0.0802805,-1.4530041,-0.33483216,-0.006168389,-0.74527395,-0.70129144,-0.005967029,0.0119490735,-0.037355017,0.33267206,-0.0019098282,1.2396605,1.47159,0.05086324,189.69801,0.59149325,0.33905077,0.29321,0.13903895,0.101638846,inf,inf,inf,inf,1,1,1,1,12,18,2,2,4,0,1,1,0,0,0
997555041,997551794,989553489,43.781812599999995,-79.4664648,-0.033115778,-0.199832,-0.24345312,-0.033358477,0.0802805,-1.4530041,-0.32279617,0.006322367,-0.74329513,-0.6984885,-0.005967029,0.0119490735,-0.037355017,-2.1586504,0.7173009,0.5448824,1.469978,0.05086324,189.69801,0.6591823,0.33083257,0.28798816,0.13442263,0.09974542,inf,inf,inf,inf,1,1,1,1,12,18,2,2,4,0,1,1,0,0,0
997652589,997650984,989553489,43.781812599999995,-79.4664648,-0.059662864,-0.20346797,-0.31075191,-0.033358477,0.0802805,-1.4530041,-0.29621962,0.03581081,-0.77100396,-0.72380286,-0.005967029,0.0119490735,-0.037355017,2.244314,-0.009301036,-3.4852479,1.4658638,0.05086324,189.69801,0.72648114,0.3388716,0.2928276,0.13869661,0.10154464,inf,inf,inf,inf,1,1,1,1,12,18,2,2,4,0,1,1,0,0,0
997753424,997750182,989553489,43.781812599999995,-79.4664648,-0.085676976,-0.20375094,-0.3812512,-0.033358477,0.0802805,-1.4530041,-0.27445278,0.04332356,-0.7339135,-0.6886401,-0.005967029,0.0119490735,-0.037355017,0.9378338,-0.62068945,0.5457288,1.4596996,0.05086324,189.69801,0.7969804,0.3306821,0.28763443,0.13408795,0.09966404,inf,inf,inf,inf,1,1,1,1,12,18,2,2,4,0,1,1,0,0,0
997851027,997849363,989553489,43.781812599999995,-79.4664648,-0.10973357,-0.20228358,-0.44780487,-0.033358477,0.0802805,-1.4530041,-0.25383985,0.046382833,-0.6970806,-0.65246415,-0.005967029,0.0119490735,-0.037355017,-0.7555058,0.8129247,0.81738144,1.4531666,0.05086324,189.69801,0.8635341,0.3387046,0.29347488,0.13823017,0.10162861,inf,inf,inf,inf,1,1,1,1,12,18,2,2,4,0,1,1,0,0,0
997950159,997948553,989553489,43.781812599999995,-79.4664648,-0.13249245,-0.19875146,-0.5171412,-0.033358477,0.0802805,-1.4530041,-0.22832555,0.063601665,-0.69316083,-0.6532545,-0.005967029,0.0119490735,-0.037355017,-0.2911967,0.52771366,0.013052267,1.4471186,0.05086324,189.69801,0.93287045,0.34719652,0.29844952,0.14243458,0.1034254,inf,inf,inf,inf,1,1,1,1,12,18,2,2,4,0,1,1,0,0,0
998049352,998047743,989553489,43.781812599999995,-79.4664648,-0.15830119,-0.18884541,-0.5877672,-0.033358477,0.0802805,-1.4530041,-0.20065877,0.07371336,-0.66709167,-0.63428605,-0.005967029,0.0119490735,-0.037355017,0.7886362,-1.0733128,2.6980808,1.4429837,0.05086324,189.69801,1.0034964,0.33848754,0.2930823,0.13774142,0.10153291,inf,inf,inf,inf,1,1,1,1,12,18,2,2,4,0,1,1,0,0,0
998148454,998146933,989553489,43.781812599999995,-79.4664648,-0.18105449,-0.17821567,-0.6584633,-0.033358477,0.0802805,-1.4530041,-0.17634809,0.085758984,-0.6425118,-0.6180542,-0.005967029,0.0119490735,-0.037355017,0.0503833,-0.7269688,3.4065535,1.4406126,0.05086324,189.69801,1.0741925,0.34695154,0.29803884,0.14195755,0.10332713,inf,inf,inf,inf,1,1,1,1,12,18,2,2,4,0,1,1,0,0,0
998256914,998255146,989553489,43.781812599999995,-79.4664648,-0.20838447,-0.16575572,-0.7352155,-0.033358477,0.0802805,-1.4530041,-0.1470128,0.09855342,-0.6396971,-0.6253805,-0.005967029,0.0119490735,-0.037355017,3.07659,-1.2215352,-0.93485636,1.440138,0.05086324,189.69801,1.1509447,0.33903039,0.29331097,0.13759606,0.101636484,inf,inf,inf,inf,1,1,1,1,12,18,2,2,4,0,1,1,0,0,0
998349260,998345313,989553489,43.781812599999995,-79.4664648,-0.226901,-0.15491612,-0.7983299,-0.033358477,0.0802805,-1.4530041,-0.13395686,0.10719788,-0.6094873,-0.6034882,-0.005967029,0.0119490735,-0.037355017,0.12700437,0.73653954,-0.51731896,1.4401181,0.05086324,189.69801,1.2140591,0.33018884,0.28749022,0.13280311,0.09957709,inf,inf,inf,inf,1,1,1,1,12,18,2,2,4,0,1,1,0,0,0
998456137,998453519,989553489,43.781812599999995,-79.4664648,-0.24312446,-0.14067155,-0.86981165,-0.033358477,0.0802805,-1.4530041,-0.09506767,0.09633413,-0.5734419,-0.57490027,-0.005967029,0.0119490735,-0.037355017,-1.6401099,0.17017348,2.2700462,1.4413166,0.05086324,189.69801,1.2855408,0.33889124,0.2929478,0.13724831,0.101574734,inf,inf,inf,inf,1,1,1,1,12,18,2,2,4,0,1,1,0,0,0
998555929,998552710,989553489,43.781812599999995,-79.4664648,-0.25317976,-0.12742618,-0.93499404,-0.033358477,0.0802805,-1.4530041,-0.05715241,0.10937677,-0.5598992,-0.5688512,-0.005967029,0.0119490735,-0.037355017,0.8871834,-0.17223229,-0.5070692,1.4418962,0.05086324,189.69801,1.3507233,0.330723,0.28772777,0.13280594,0.09969465,inf,inf,inf,inf,1,1,1,1,12,18,2,2,4,0,1,1,0,0,0
998653418,998651905,989553489,43.781812599999995,-79.4664648,-0.25542805,-0.11138512,-0.99864495,-0.033358477,0.0802805,-1.4530041,-0.03250234,0.11064001,-0.52658296,-0.54351485,-0.005967029,0.0119490735,-0.037355017,-1.5989642,2.0451689,-1.6324521,1.4422069,0.05086324,189.69801,1.4143741,0.33869973,0.29256317,0.13685173,0.101500064,inf,inf,inf,inf,1,1,1,1,12,18,2,2,4,0,1,1,0,0,0
998755039,998751089,989553489,43.781812599999995,-79.4664648,-0.25567362,-0.09809038,-1.0585293,-0.033358477,0.0802805,-1.4530041,0.0084967,0.09388411,-0.47749728,-0.5018488,-0.005967029,0.0119490735,-0.037355017,-0.0669372,-0.295364,1.8855281,1.4451551,0.05086324,189.69801,1.4742584,0.33056512,0.2873588,0.13242343,0.0996262,inf,inf,inf,inf,1,1,1,1,12,18,2,2,4,0,1,1,0,0,0
998852203,998850279,989553489,43.781812599999995,-79.4664648,-0.25819033,-0.09011531,-1.1154102,-0.033358477,0.0802805,-1.4530041,0.031759046,0.07249108,-0.45880884,-0.4896738,-0.005967029,0.0119490735,-0.037355017,0.15124318,-2.6647232,3.9464674,1.4489559,0.05086324,189.69801,1.5311394,0.33852,0.29217917,0.13644674,0.101429366,inf,inf,inf,inf,1,1,1,1,12,18,2,2,4,0,1,1,0,0,0
998952663,998949469,989553489,43.781812599999995,-79.4664648,-0.25803775,-0.08322073,-1.1690575,-0.033358477,0.0802805,-1.4530041,0.04986495,0.073758684,-0.44957253,-0.48541048,-0.005967029,0.0119490735,-0.037355017,0.61355793,-0.13834438,-0.8525468,1.4521313,0.05086324,189.69801,1.5847867,0.3304132,0.28795987,0.13209203,0.09971806,inf,inf,inf,inf,1,1,1,1,12,18,2,2,4,0,1,1,0,0,0
999050257,999048667,989553489,43.781812599999995,-79.4664648,-0.2579146,-0.07468868,-1.2184798,-0.033358477,0.0802805,-1.4530041,0.059519216,0.05741093,-0.40601304,-0.44444513,-0.005967029,0.0119490735,-0.037355017,0.06917554,0.34027565,-0.6726885,1.4538131,0.05086324,189.69801,1.6342089,0.33835092,0.2928198,0.13619614,0.10153296,inf,inf,inf,inf,1,1,1,1,12,18,2,2,4,0,1,1,0,0,0
999151777,999147854,989553489,43.781812599999995,-79.4664648,-0.25493884,-0.06723171,-1.2630228,-0.033358477,0.0802805,-1.4530041,0.06220791,0.053581435,-0.35887465,-0.3991957,-0.005967029,0.0119490735,-0.037355017,-2.0308993,1.5473189,-0.7395614,1.4455911,-0.007935383,189.69801,1.678752,0.33033103,0.28760573,0.13061121,0.0996605,inf,inf,inf,inf,1,1,1,1,12,18,2,2,5,0,1,1,0,0,0
999249345,999247038,989553489,43.781812599999995,-79.4664648,-0.24803084,-0.056659814,-1.3018728,-0.033358477,0.0802805,-1.4530041,0.08554763,0.025362553,-0.30430874,-0.34550396,-0.005967029,0.0119490735,-0.037355017,0.17282961,-1.0100598,1.7699721,1.447058,-0.007935383,189.69801,1.717602,0.33815894,0.29245603,0.13199641,0.10147342,inf,inf,inf,inf,1,1,1,1,12,18,2,2,5,0,1,1,0,0,0
999349708,999346231,989553489,43.781812599999995,-79.4664648,-0.24044615,-0.049341224,-1.3362126,-0.033358477,0.0802805,-1.4530041,0.08278142,0.022913927,-0.26986304,-0.31195763,-0.005967029,0.0119490735,-0.037355017,-0.5314135,0.80745775,-0.80062735,1.4477986,-0.007935383,189.69801,1.7519419,0.33028027,0.28725955,0.12634832,0.099607535,inf,inf,inf,inf,1,1,1,1,12,18,2,2,5,0,1,1,0,0,0
999456357,999454436,989553489,43.781812599999995,-79.4664648,-0.23148401,-0.045311365,-1.3680948,-0.033358477,0.0802805,-1.4530041,0.09131713,0.01734296,-0.2308093,-0.27308613,-0.005967029,0.0119490735,-0.037355017,0.69037527,0.8859246,-2.3520765,1.4468428,-0.007935383,189.69801,1.783824,0.33860737,0.29272214,0.12903267,0.101611495,inf,inf,inf,inf,1,1,1,1,12,18,2,2,5,0,1,1,0,0,0
999557519,999553625,989553489,43.781812599999995,-79.4664648,-0.22254635,-0.04370042,-1.3939584,-0.033358477,0.0802805,-1.4530041,0.105887346,-0.002633009,-0.19274697,-0.23541196,-0.005967029,0.0119490735,-0.037355017,0.53923905,-0.88662106,1.9352348,1.4458827,-0.007935383,189.69801,1.8096876,0.3307388,0.28748128,0.12476469,0.099727966,inf,inf,inf,inf,1,1,1,1,12,18,2,2,5,0,1,1,0,0,0
999654494,999652814,989553489,43.781812599999995,-79.4664648,-0.21422267,-0.04924179,-1.4167418,-0.033358477,0.0802805,-1.4530041,0.09879057,-0.023239732,-0.17572442,-0.21806116,-0.005967029,0.0119490735,-0.037355017,-1.5405933,0.86451536,0.07907427,1.4452561,-0.007935383,189.69801,1.8324711,0.33819714,0.29232258,0.12823443,0.10153775,inf,inf,inf,inf,1,1,1,1,12,18,2,2,5,0,1,1,0,0,0
999755285,999752004,989553489,43.781812599999995,-79.4664648,-0.20550278,-0.05457552,-1.4407243,-0.033358477,0.0802805,-1.4530041,0.10192485,-0.021528482,-0.21105531,-0.25383386,-0.005967029,0.0119490735,-0.037355017,1.2940873,-0.14920273,-2.7180736,1.445859,-0.007935383,189.69801,1.8564534,0.33043745,0.2870948,0.12503293,0.09965939,inf,inf,inf,inf,1,1,1,1,12,18,2,2,5,0,1,1,0,0,0
999852971,999851193,989553489,43.781812599999995,-79.4664648,-0.19541082,-0.054661844,-1.4665529,-0.033358477,0.0802805,-1.4530041,0.11000459,-0.009891513,-0.1894506,-0.23331995,-0.005967029,0.0119490735,-0.037355017,0.32514423,-0.16654581,1.9506178,1.4468887,-0.007935383,189.69801,1.882282,0.33774093,0.29192612,0.1293796,0.10146723,inf,inf,inf,inf,1,1,1,1,12,18,2,2,5,0,1,1,0,0,0
999953356,999950384,989553489,43.781812599999995,-79.4664648,-0.18455513,-0.054005522,-1.4899124,-0.033358477,0.0802805,-1.4530041,0.11174422,0.0016558327,-0.17820458,-0.22188215,-0.005967029,0.0119490735,-0.037355017,0.13552023,0.52959186,-1.912719,1.4476268,-0.007935383,189.69801,1.9056416,0.33007386,0.28768197,0.12672697,0.099750094,inf,inf,inf,inf,1,1,1,1,12,18,2,2,5,0,1,1,0,0,0
1000051348,1000049573,989553489,43.781812599999995,-79.4664648,-0.17283683,-0.05334864,-1.5091107,-0.033358477,0.0802805,-1.4530041,0.123002246,-0.009951069,-0.16237141,-0.20344885,-0.005967029,0.0119490735,-0.037355017,1.3021811,-1.4103056,1.8554306,1.4486098,-0.007935383,189.69801,1.92484,0.33726227,0.29254925,0.13173696,0.10156835,inf,inf,inf,inf,1,1,1,1,12,18,2,2,5,0,1,1,0,0,0
1000152787,1000148763,989553489,43.781812599999995,-79.4664648,-0.16104576,-0.05408905,-1.5276204,-0.033358477,0.0802805,-1.4530041,0.10909227,-0.018637644,-0.15022354,-0.18951578,-0.005967029,0.0119490735,-0.037355017,-1.3504592,0.5654288,-0.6185505,1.4491704,-0.007935383,189.69801,1.9433496,0.32967076,0.28730914,0.12935995,0.09969018,inf,inf,inf,inf,1,1,1,1,12,18,2,2,5,1,1,1,0,0,0
1000249670,1000247953,989553489,43.781812599999995,-79.4664648,-0.14780286,-0.055971816,-1.5439668,-0.033358477,0.0802805,-1.4530041,0.118760005,-0.023873882,-0.16984902,-0.20523086,-0.005967029,0.0119490735,-0.037355017,3.272508,-1.8554627,0.81976557,1.4511328,-0.007935383,189.69801,1.959696,0.3367869,0.29216745,0.13501051,0.10150761,inf,inf,inf,inf,1,1,1,1,12,18,2,2,5,1,1,1,0,0,0
1000352046,1000347144,989553489,43.781812599999995,-79.4664648,-0.1356306,-0.057810973,-1.5622115,-0.033358477,0.0802805,-1.4530041,0.09607473,-0.018561838,-0.16711585,-0.20011367,-0.005967029,0.0119490735,-0.037355017,-1.4476377,0.45708588,0.8879671,1.4520684,-0.007935383,189.69801,1.9779408,0.32925284,0.28694278,0.13264847,0.099634245,inf,inf,inf,inf,1,1,1,1,12,18,2,2,5,1,1,1,0,0,0
1000447993,1000446332,989553489,43.781812599999995,-79.4664648,-0.124817625,-0.05958639,-1.5763067,-0.033358477,0.0802805,-1.4530041,0.10001564,-0.032113027,-0.13859342,-0.16571167,-0.005967029,0.0119490735,-0.037355017,-0.3290784,-1.4776272,4.2716165,1.4522814,-0.007935383,189.69801,1.9920359,0.33634043,0.29178828,0.13871092,0.10144842,inf,inf,inf,inf,1,1,1,1,12,18,2,2,5,1,1,1,0,0,0
1000558672,1000554539,989553489,43.781812599999995,-79.4664648,-0.1141042,-0.061149575,-1.5907441,-0.033358477,0.0802805,-1.4530041,0.08588317,-0.01374,-0.12569852,-0.1491158,-0.005967029,0.0119490735,-0.037355017,-0.7932967,-0.37429973,1.6662155,1.4509728,-0.007935383,189.69801,2.0064733,0.32941395,0.28715986,0.1365014,0.09975358,inf,inf,inf,inf,1,1,1,1,12,18,2,2,5,1,1,1,0,0,0
1000647264,1000644716,989553489,43.781812599999995,-79.4664648,-0.105926596,-0.06058551,-1.5994197,-0.033358477,0.0802805,-1.4530041,0.07034082,-0.0008230645,-0.1312402,-0.14830413,-0.005967029,0.0119490735,-0.037355017,-2.5059032,0.5144491,1.8255432,1.4494712,-0.007935383,189.69801,2.0151489,0.33587956,0.291381,0.14215544,0.10137085,inf,inf,inf,inf,1,1,1,1,12,18,2,2,5,1,1,1,0,0,0
1000756775,1000752919,989553489,43.781812599999995,-79.4664648,-0.09761415,-0.05860487,-1.6136755,-0.033358477,0.0802805,-1.4530041,0.050710693,0.020886425,-0.1468028,-0.16015492,-0.005967029,0.0119490735,-0.037355017,-2.361994,0.51867384,0.7449588,1.44872,-0.007935383,189.69801,2.0294046,0.32898334,0.2867697,0.13978523,0.099681936,inf,inf,inf,inf,1,1,1,1,12,18,2,2,5,1,1,1,0,0,0
1000853789,1000852108,989553489,43.781812599999995,-79.4664648,-0.087848514,-0.054668255,-1.6234305,-0.033358477,0.0802805,-1.4530041,0.05849114,0.030196358,-0.15119362,-0.15829384,-0.005967029,0.0119490735,-0.037355017,2.1997519,-1.481879,1.3241277,1.4481294,-0.007935383,189.69801,2.0391598,0.3361595,0.29161048,0.1462584,0.101492904,inf,inf,inf,inf,1,1,1,1,12,18,2,2,5,1,1,1,0,0,0
1000955485,1000951298,989553489,43.781812599999995,-79.4664648,-0.079209335,-0.050533686,-1.635331,-0.033358477,0.0802805,-1.4530041,0.05323546,0.03638896,-0.12564635,-0.12954411,-0.005967029,0.0119490735,-0.037355017,-1.2638172,0.51757836,2.753843,1.4464989,-0.007935383,189.69801,2.0510602,0.3286249,0.2873653,0.14270249,0.099772915,inf,inf,inf,inf,1,1,1,1,12,18,2,2,5,1,1,1,0,0,0
1001052739,1001050488,989553489,43.781812599999995,-79.4664648,-0.06971924,-0.04825009,-1.6431597,-0.033358477,0.0802805,-1.4530041,0.04801803,0.044122864,-0.13231434,-0.13005581,-0.005967029,0.0119490735,-0.037355017,-0.24914369,0.5373619,-1.3889276,1.445975,-0.007935383,189.69801,2.058889,0.33587176,0.29224232,0.14923094,0.10159324,inf,inf,inf,inf,1,1,1,1,12,18,2,2,5,1,1,1,0,0,0
1001151494,1001149678,989553489,43.781812599999995,-79.4664648,-0.061468378,-0.046069715,-1.6522225,-0.033358477,0.0802805,-1.4530041,0.05314914,0.026677957,-0.12101443,-0.1158677,-0.005967029,0.0119490735,-0.037355017,0.84871036,-1.2721119,1.7359464,1.4478937,-0.007935383,189.69801,2.0679517,0.34368202,0.29722816,0.155716,0.103402376,inf,inf,inf,inf,1,1,1,1,12,18,2,2,5,1,1,1,0,0,0
1001251126,1001248867,989553489,43.781812599999995,-79.4664648,-0.05520786,-0.04820737,-1.6555245,-0.033358477,0.0802805,-1.4530041,0.03673507,0.016300313,-0.12641825,-0.113159485,-0.005967029,0.0119490735,-0.037355017,-1.3153329,1.8187528,-2.0834708,1.4503568,-0.007935383,189.69801,2.0712538,0.33563155,0.29185024,0.1514883,0.10151223,inf,inf,inf,inf,1,1,1,1,12,18,2,2,5,1,1,1,0,0,0
1001350968,1001348057,989553489,43.781812599999995,-79.4664648,-0.050257377,-0.05062055,-1.6633037,-0.033358477,0.0802805,-1.4530041,0.045534953,0.005537537,-0.13822319,-0.12121586,-0.005967029,0.0119490735,-0.037355017,1.6394173,-0.4690511,-0.078200206,1.4530882,-0.007935383,189.69801,2.079033,0.32810637,0.2866465,0.14710106,0.09964043,inf,inf,inf,inf,1,1,1,1,12,18,2,2,5,1,1,1,0,0,0
1001448834,1001447249,989553489,43.781812599999995,-79.4664648,-0.04723351,-0.05442969,-1.6682142,-0.033358477,0.0802805,-1.4530041,0.027097633,0.010970043,-0.12530434,-0.10276702,-0.005967029,0.0119490735,-0.037355017,-1.3325064,1.5805258,-0.8388062,1.4542289,-0.007935383,189.69801,2.0839434,0.33554015,0.2915048,0.15346892,0.10145738,inf,inf,inf,inf,1,1,1,1,12,18,2,2,5,1,1,1,0,0,0
1001548104,1001546437,989553489,43.781812599999995,-79.4664648,-0.04449779,-0.057504043,-1.6755532,-0.033358477,0.0802805,-1.4530041,0.033089496,-0.001970131,-0.1024981,-0.078742884,-0.005967029,0.0119490735,-0.037355017,0.61541325,-0.978099,3.7471745,1.4545687,-0.007935383,189.69801,2.0912824,0.3435849,0.29646236,0.15990242,0.10325993,inf,inf,inf,inf,1,1,1,1,12,18,2,2,5,1,1,1,0,0,0
1001647518,1001645626,989553489,43.781812599999995,-79.4664648,-0.041865945,-0.059863128,-1.6802725,-0.033358477,0.0802805,-1.4530041,0.02284227,-0.00011286339,-0.223761,-0.19508651,-0.005967029,0.0119490735,-0.037355017,-0.39484426,0.5569253,-4.8831244,1.4555763,-0.007935383,189.69801,2.0960016,0.33544275,0.2911241,0.15467566,0.10138108,inf,inf,inf,inf,1,1,1,1,12,18,2,2,5,1,1,1,0,0,0
1001757142,1001753722,989553489,43.781812599999995,-79.4664648,-0.038978413,-0.061176658,-1.7237885,-0.033358477,0.0802805,-1.4530041,0.03564201,0.008031237,-0.71580654,-0.6844295,-0.005967029,0.0119490735,-0.037355017,0.34548652,0.11887732,-4.801418,1.4597689,-0.007935383,189.69801,2.1395178,0.3284258,0.28653243,0.15056306,0.09969321,inf,inf,inf,inf,1,1,1,1,12,18,2,2,5,1,1,1,0,0,0
1001855428,1001853023,989553489,43.781812599999995,-79.4664648,-0.03553452,-0.06191088,-1.8036174,-0.033358477,0.0802805,-1.4530041,0.05628019,0.007183487,-1.1841446,-1.1419026,-0.005967029,0.0119490735,-0.037355017,0.7394708,0.071878396,-4.1739807,1.4649012,-0.007935383,189.69801,2.2193465,0.33614287,0.2913821,0.15853634,0.10150452,inf,inf,inf,inf,1,1,1,1,12,18,2,2,5,1,1,1,0,0,0
1001955597,1001952213,989553489,43.781812599999995,-79.4664648,-0.030347265,-0.06104796,-1.9325341,-0.033358477,0.0802805,-1.4530041,0.060819343,0.032138877,-1.6621959,-1.6124281,-0.005967029,0.0119490735,-0.037355017,-0.26885736,0.005838172,-4.9406433,1.4707519,-0.007935383,189.69801,2.3482633,0.32832387,0.28713796,0.1540506,0.09978196,inf,inf,inf,inf,1,1,1,1,12,18,2,2,5,1,1,1,0,0,0
1002052996,1002051403,989553489,43.781812599999995,-79.4664648,-0.020403067,-0.057960782,-2.0893342,-0.033358477,0.0802805,-1.4530041,0.07006935,0.060461544,-2.1204295,-2.0459898,-0.005967029,0.0119490735,-0.037355017,0.40977153,-0.18058813,-4.68705,1.4758612,-0.007935383,189.69801,2.5050635,0.3362048,0.292028,0.1619933,0.101604864,inf,inf,inf,inf,1,1,1,1,12,18,2,2,5,1,1,1,0,0,0
1002152266,1002150592,989553489,43.781812599999995,-79.4664648,-0.011203221,-0.05202259,-2.3002136,-0.033358477,0.0802805,-1.4530041,0.057814702,0.083175614,-2.549217,-2.4634175,-0.005967029,0.0119490735,-0.037355017,-0.10908438,0.5889162,-5.0376487,1.4800606,-0.007935383,189.69801,2.7159429,0.34481403,0.297023,0.1700564,0.103415385,inf,inf,inf,inf,1,1,1,1,12,18,2,2,5,1,1,1,0,0,0
1002251344,1002249788,989553489,43.781812599999995,-79.4664648,-0.0051108273,-0.048343524,-2.525095,-0.033358477,0.0802805,-1.4530041,0.043955356,0.08447779,-2.9321678,-2.8104358,-0.005967029,0.0119490735,-0.037355017,-0.29849675,0.21747431,-4.1458077,1.4832246,-0.007935383,189.69801,2.9408243,0.33624518,0.29163703,0.16420218,0.10152145,inf,inf,inf,inf,1,1,1,1,12,18,2,2,5,1,1,1,0,0,0
1002353380,1002348972,989553489,43.781812599999995,-79.4664648,-0.0004504566,-0.045146834,-2.7979188,-0.033358477,0.0802805,-1.4530041,0.030875366,0.06877472,-3.299268,-3.1564503,-0.005967029,0.0119490735,-0.037355017,0.3896689,0.0471849,-4.6153007,1.484324,-0.007935383,189.69801,3.213648,0.32824546,0.2864205,0.15806127,0.0996455,inf,inf,inf,inf,1,1,1,1,12,18,2,2,5,1,1,1,0,0,0
1002449828,1002448163,989553489,43.781812599999995,-79.4664648,0.0044413614,-0.051383298,-3.0869677,-0.033358477,0.0802805,-1.4530041,0.020249354,0.05106194,-3.6388516,-3.4586341,-0.005967029,0.0119490735,-0.037355017,0.1334357,0.1322845,-3.4265866,1.4841285,-0.007935383,189.69801,3.502697,0.33640078,0.29128733,0.1652005,0.10146283,inf,inf,inf,inf,1,1,1,1,12,18,2,2,5,1,1,1,0,0,0
1002551636,1002547353,989553489,43.781812599999995,-79.4664648,0.00875613,-0.05609291,-3.4203176,-0.033358477,0.0802805,-1.4530041,0.012280417,0.04141661,-3.95171,-3.7501678,-0.005967029,0.0119490735,-0.037355017,0.21395306,-0.2727661,-3.689976,1.4829228,-0.007935383,189.69801,3.836047,0.32832086,0.28609255,0.15849847,0.09959203,inf,inf,inf,inf,1,1,1,1,12,18,2,2,5,1,1,1,0,0,0
1002648384,1002646545,989553489,43.781812599999995,-79.4664648,0.0198487,-0.06050845,-3.7675178,-0.033358477,0.0802805,-1.4530041,0.014900637,0.056398664,-4.1932282,-3.9588137,-0.005967029,0.0119490735,-0.037355017,-0.45684925,0.7633436,-2.8885965,1.4819642,-0.007935383,189.69801,4.183247,0.33658618,0.29094693,0.16525704,0.101406686,inf,inf,inf,inf,1,1,1,1,12,18,2,2,5,1,1,1,0,0,0
1002749073,1002745730,989553489,43.781812599999995,-79.4664648,0.02838408,-0.060892735,-4.149376,-0.033358477,0.0802805,-1.4530041,0.0065637515,0.080501564,-4.372322,-4.1222167,-0.005967029,0.0119490735,-0.037355017,-0.49822113,0.6044204,-2.9072285,1.478669,-0.007935383,189.69801,4.565105,0.32845643,0.2857769,0.15806223,0.09954302,inf,inf,inf,inf,1,1,1,1,12,18,2,2,5,1,1,1,0,0,0
1002856326,1002853937,989553489,43.781812599999995,-79.4664648,0.033742525,-0.058808718,-4.575248,-0.033358477,0.0802805,-1.4530041,0.000843423,0.098451644,-4.467652,-4.1967144,-0.005967029,0.0119490735,-0.037355017,-0.77565014,0.020711591,1.0047132,1.4727138,-0.007935383,189.69801,4.990977,0.33759245,0.2912485,0.16450594,0.101550475,inf,inf,inf,inf,1,1,1,1,12,18,2,2,5,1,1,1,0,0,0
1002956316,1002953127,989553489,43.781812599999995,-79.4664648,0.036863208,-0.053540047,-4.988511,-0.033358477,0.0802805,-1.4530041,-0.006435661,0.111889765,-4.531922,-4.2584424,-0.005967029,0.0119490735,-0.037355017,0.95031244,-1.0788308,0.40654176,1.4672743,-0.007935383,189.69801,5.40424,0.32930094,0.2860359,0.1568261,0.09966753,inf,inf,inf,inf,1,1,1,1,12,18,2,2,5,1,1,1,0,0,0
1003054066,1003052316,989553489,43.781812599999995,-79.4664648,0.040834673,-0.048918657,-5.404496,-0.033358477,0.0802805,-1.4530041,-0.017876854,0.11371332,-4.573915,-4.2968044,-0.005967029,0.0119490735,-0.037355017,0.7434252,-0.47166434,-1.5920758,1.4623994,-0.007935383,189.69801,5.8202252,0.33773515,0.29189283,0.16212036,0.1016463,inf,inf,inf,inf,1,1,1,1,12,18,2,2,5,1,1,1,0,0,0
1003155526,1003151506,989553489,43.781812599999995,-79.4664648,0.042884637,-0.042905394,-5.832414,-0.033358477,0.0802805,-1.4530041,-0.026295759,0.10698975,-4.587528,-4.31681,-0.005967029,0.0119490735,-0.037355017,0.5607949,-0.05444114,-1.6434424,1.4589442,-0.007935383,189.69801,6.248143,0.32942528,0.28665403,0.15444282,0.099757515,inf,inf,inf,inf,1,1,1,1,12,18,2,2,5,1,1,1,0,0,0
1003253340,1003250696,989553489,43.781812599999995,-79.4664648,0.042835392,-0.03255339,-6.2692857,-0.033358477,0.0802805,-1.4530041,-0.03734707,0.09328377,-4.635563,-4.3752475,-0.005967029,0.0119490735,-0.037355017,-1.1697636,-0.3180066,0.010100083,1.4559035,-0.007935383,189.69801,6.6850147,0.3378646,0.29154137,0.15942256,0.101577535,inf,inf,inf,inf,1,1,1,1,12,18,2,2,5,1,1,1,0,0,0
1003352987,1003349885,989553489,43.781812599999995,-79.4664648,0.040513236,-0.02284579,-6.7184763,-0.033358477,0.0802805,-1.4530041,-0.059090164,0.08036781,-4.674813,-4.4301977,-0.005967029,0.0119490735,-0.037355017,-1.3801336,0.56061745,0.1338802,1.4552124,-0.007935383,189.69801,7.1342053,0.32953784,0.28631917,0.15220404,0.09969428,inf,inf,inf,inf,1,1,1,1,12,18,2,2,5,1,1,1,0,0,0
1003450824,1003449075,989553489,43.781812599999995,-79.4664648,0.037865493,-0.011807426,-7.1779127,-0.033358477,0.0802805,-1.4530041,-0.07030698,0.06650599,-4.7271876,-4.502251,-0.005967029,0.0119490735,-0.037355017,-0.6510923,0.5698245,-1.8536836,1.4555254,-0.007935383,189.69801,7.5936418,0.33797547,0.29119733,0.1571351,0.10151196,inf,inf,inf,inf,1,1,1,1,12,18,2,2,5,1,1,1,0,0,0
1003551494,1003548273,989553489,43.781812599999995,-79.4664648,0.032974668,-0.0025206245,-7.645172,-0.033358477,0.0802805,-1.4530041,-0.07059778,0.048395514,-4.776164,-4.5719543,-0.005967029,0.0119490735,-0.037355017,1.4271063,-1.7849265,0.6915221,1.4560779,-0.007935383,189.69801,8.060902,0.3296438,0.28599232,0.15005378,0.099632375,inf,inf,inf,inf,1,1,1,1,12,18,2,2,5,1,1,1,0,0,0
1003648883,1003647454,989553489,43.781812599999995,-79.4664648,0.021291541,0.009761099,-8.1241865,-0.033358477,0.0802805,-1.4530041,-0.08003116,0.020208728,-4.8102784,-4.631014,-0.005967029,0.0119490735,-0.037355017,-0.56529844,-0.4637677,1.354126,1.4540272,-0.007935383,189.69801,8.539916,0.33807123,0.29086137,0.15478663,0.10144809,inf,inf,inf,inf,1,1,1,1,12,18,2,2,5,1,1,1,0,0,0
1003748403,1003746644,989553489,43.781812599999995,-79.4664648,0.009849228,0.016582264,-8.608019,-0.033358477,0.0802805,-1.4530041,-0.085331455,-0.021994773,-4.8620033,-4.705386,-0.005967029,0.0119490735,-0.037355017,0.45062104,-1.1897044,-1.0096864,1.4503644,-0.007935383,189.69801,9.023748,0.34710371,0.29582936,0.1596901,0.10324882,inf,inf,inf,inf,1,1,1,1,12,18,2,2,5,1,1,1,0,0,0
1003857460,1003854851,989553489,43.781812599999995,-79.4664648,-0.009259401,0.025572225,-9.1459675,-0.033358477,0.0802805,-1.4530041,-0.088967934,-0.06209721,-4.8630013,-4.73623,-0.005967029,0.0119490735,-0.037355017,1.735725,-1.0016652,-0.11955556,1.4453326,-0.007935383,189.69801,9.561697,0.33887905,0.29111832,0.15301967,0.10155746,inf,inf,inf,inf,1,1,1,1,12,18,2,2,5,1,1,1,0,0,0
1003948447,1003945023,989553489,43.781812599999995,-79.4664648,-0.024456125,0.02831002,-9.593468,-0.033358477,0.0802805,-1.4530041,-0.09591099,-0.07643769,-4.856949,-4.7518973,-0.005967029,0.0119490735,-0.037355017,0.81763,-0.03521614,-1.0199692,1.4406048,-0.007935383,189.69801,10.009197,0.3297729,0.28626576,0.1460117,0.09964929,inf,inf,inf,inf,1,1,1,1,12,18,2,2,5,1,1,1,0,0,0
1004054884,1004053230,989553489,43.781812599999995,-79.4664648,-0.046567917,0.032385767,-10.138386,-0.033358477,0.0802805,-1.4530041,-0.092799485,-0.0942662,-4.8224173,-4.749752,-0.005967029,0.0119490735,-0.037355017,-0.48567924,0.16801198,0.3004072,1.4351074,-0.007935383,189.69801,10.554115,0.3389379,0.29179236,0.15075491,0.101666495,inf,inf,inf,inf,1,1,1,1,12,18,2,2,5,1,1,1,0,0,0
1004155799,1004152419,989553489,43.781812599999995,-79.4664648,-0.063961156,0.031923708,-10.633874,-0.033358477,0.0802805,-1.4530041,-0.089082025,-0.10735483,-4.816818,-4.7678046,-0.005967029,0.0119490735,-0.037355017,-1.8875663,1.5543565,-1.335479,1.4328415,-0.007935383,189.69801,11.049603,0.33052963,0.28653482,0.14432026,0.09976884,inf,inf,inf,inf,1,1,1,1,12,18,2,2,5,1,1,1,0,0,0
1004253253,1004251609,989553489,43.781812599999995,-79.4664648,-0.08582186,0.030826049,-11.135937,-0.033358477,0.0802805,-1.4530041,-0.09235466,-0.1224478,-4.818414,-4.797461,-0.005967029,0.0119490735,-0.037355017,-0.23595347,0.231942,-1.7169932,1.4363949,-0.007935383,189.69801,11.551666,0.33891353,0.29143474,0.14861737,0.10158916,inf,inf,inf,inf,1,1,1,1,12,18,2,2,5,1,1,1,0,0,0
1004352712,1004350800,989553489,43.781812599999995,-79.4664648,-0.10558755,0.026654802,-11.63515,-0.033358477,0.0802805,-1.4530041,-0.10655208,-0.115569144,-4.833298,-4.8334894,-0.005967029,0.0119490735,-0.037355017,1.5874491,-0.45349428,-1.5788213,1.4439439,-0.007935383,189.69801,12.0508795,0.34784043,0.296439,0.15294577,0.103396215,inf,inf,inf,inf,1,1,1,1,12,18,2,2,5,1,1,1,0,0,0
1004451389,1004449988,989553489,43.781812599999995,-79.4664648,-0.122882046,0.026833497,-12.140784,-0.033358477,0.0802805,-1.4530041,-0.10821678,-0.098847196,-4.792446,-4.8197017,-0.005967029,0.0119490735,-0.037355017,-0.8387905,0.4662658,-0.053894926,1.4494455,-0.007935383,189.69801,12.556514,0.3388146,0.29104498,0.1465959,0.10149255,inf,inf,inf,inf,1,1,1,1,12,18,2,2,5,1,1,1,0,0,0
1004551470,1004549178,989553489,43.781812599999995,-79.4664648,-0.13965479,0.026169686,-12.637241,-0.033358477,0.0802805,-1.4530041,-0.1277732,-0.08389347,-4.789929,-4.83416,-0.005967029,0.0119490735,-0.037355017,0.42201427,-0.6990342,0.42291018,1.4648886,-0.007935383,189.69801,13.052971,0.34767687,0.2960328,0.15079756,0.10329431,inf,inf,inf,inf,1,1,1,1,12,18,2,2,5,1,1,1,0,0,0
1004649943,1004648367,989553489,43.781812599999995,-79.4664648,-0.16323048,0.026766475,-13.143649,-0.033358477,0.0802805,-1.4530041,-0.14132653,-0.08496118,-4.830796,-4.897624,-0.005967029,0.0119490735,-0.037355017,0.06179257,0.6361494,-1.2665179,1.4918805,-0.007935383,189.69801,13.559379,0.33870807,0.29066053,0.1447482,0.101399444,inf,inf,inf,inf,1,1,1,1,12,18,2,2,5,1,1,1,0,0,0
1004751819,1004747559,989553489,43.781812599999995,-79.4664648,-0.1854271,0.025334392,-13.648301,-0.033358477,0.0802805,-1.4530041,-0.13515812,-0.08134287,-4.8747907,-4.9558697,-0.005967029,0.0119490735,-0.037355017,-0.3729744,0.86501974,-2.7366238,1.5166283,-0.007935383,189.69801,14.064031,0.33040127,0.2854619,0.1392705,0.09952315,inf,inf,inf,inf,1,1,1,1,12,18,2,2,5,1,1,1,0,0,0
1004849942,1004846747,989553489,43.781812599999995,-79.4664648,-0.2152778,0.025118677,-14.1641035,-0.033358477,0.0802805,-1.4530041,-0.10716553,-0.081343986,-4.9204817,-5.020877,-0.005967029,0.0119490735,-0.037355017,1.4605756,-0.18836224,0.10136274,1.5343101,-0.007935383,189.69801,14.579833,0.3386538,0.2903212,0.1434899,0.10133328,inf,inf,inf,inf,1,1,1,1,12,18,2,2,5,1,1,1,0,0,0
1004948243,1004945936,989553489,43.781812599999995,-79.4664648,-0.23775677,0.02334708,-14.677032,-0.033358477,0.0802805,-1.4530041,-0.09285723,-0.067893445,-4.9458976,-5.057145,-0.005967029,0.0119490735,-0.037355017,-2.6946597,1.8031284,-1.7863805,1.5478061,-0.007935383,189.69801,15.092762,0.34741342,0.29633525,0.147711,0.103309266,inf,inf,inf,inf,1,1,1,1,12,18,2,2,5,1,1,1,0,0,0
1005046779,1005045125,989553489,43.781812599999995,-79.4664648,-0.2730722,0.025266934,-15.202225,-0.033358477,0.0802805,-1.4530041,-0.070023336,-0.065734714,-4.935339,-5.0666647,-0.005967029,0.0119490735,-0.037355017,-0.74426603,0.57118595,0.7069245,1.5582881,-0.007935383,189.69801,15.617954,0.3385302,0.29094929,0.14218958,0.10141495,inf,inf,inf,inf,1,1,1,1,12,18,2,2,5,1,1,1,0,0,0
1005156294,1005153332,989553489,43.781812599999995,-79.4664648,-0.30381584,0.025144562,-15.765538,-0.033358477,0.0802805,-1.4530041,-0.07388428,-0.0650125,-4.91551,-5.0583153,-0.005967029,0.0119490735,-0.037355017,-0.75521314,1.715344,-0.90614235,1.5666249,-0.007935383,189.69801,16.181267,0.33096007,0.28630581,0.13718824,0.099709414,inf,inf,inf,inf,1,1,1,1,12,18,2,2,5,1,1,1,0,0,0
1005253963,1005252521,989553489,43.781812599999995,-79.4664648,-0.33672428,0.022017587,-16.283813,-0.033358477,0.0802805,-1.4530041,-0.06833717,-0.08407337,-4.863587,-5.021524,-0.005967029,0.0119490735,-0.037355017,-0.49684137,0.058629535,0.9190576,1.573728,-0.007935383,189.69801,16.699543,0.33916968,0.29121262,0.14116532,0.10152853,inf,inf,inf,inf,1,1,1,1,12,18,2,2,5,1,1,1,0,0,0
1005354976,1005351711,989553489,43.781812599999995,-79.4664648,-0.36197296,0.016787933,-16.791307,-0.033358477,0.0802805,-1.4530041,-0.045549147,-0.09165875,-4.8566046,-5.020679,-0.005967029,0.0119490735,-0.037355017,1.7329572,-1.5681206,4.4031167,1.5803635,-0.007935383,189.69801,17.207037,0.330872,0.285956,0.13590765,0.09963437,inf,inf,inf,inf,1,1,1,1,12,18,2,2,5,1,1,1,0,0,0
1005452644,1005450900,989553489,43.781812599999995,-79.4664648,-0.37746206,0.0096515305,-17.303328,-0.033358477,0.0802805,-1.4530041,-0.02356294,-0.11306648,-4.876956,-5.0512004,-0.005967029,0.0119490735,-0.037355017,1.194291,-0.6063445,-2.0395377,1.5818775,-0.007935383,189.69801,17.719057,0.3390318,0.29084417,0.13988584,0.10144791,inf,inf,inf,inf,1,1,1,1,12,18,2,2,5,1,1,1,0,0,0
1005553205,1005550090,989553489,43.781812599999995,-79.4664648,-0.38805273,-0.0009479069,-17.809626,-0.033358477,0.0802805,-1.4530041,-0.008330303,-0.13722724,-4.891224,-5.0677395,-0.005967029,0.0119490735,-0.037355017,1.6269394,-1.2514975,2.052987,1.5864326,-0.007935383,189.69801,18.225355,0.33077306,0.28561527,0.13496691,0.099562384,inf,inf,inf,inf,1,1,1,1,12,18,2,2,5,1,1,1,0,0,0
1005651040,1005649279,989553489,43.781812599999995,-79.4664648,-0.3985917,-0.010594164,-18.32261,-0.033358477,0.0802805,-1.4530041,-0.0158539,-0.14282706,-4.90096,-5.0838213,-0.005967029,0.0119490735,-0.037355017,-2.6323798,-0.2631786,0.8022408,1.5907296,-0.007935383,189.69801,18.73834,0.33889258,0.29049343,0.13907503,0.1013738,inf,inf,inf,inf,1,1,1,1,12,18,2,2,5,1,1,1,0,0,0
1005750239,1005748468,989553489,43.781812599999995,-79.4664648,-0.4060911,-0.02231482,-18.828478,-0.033358477,0.0802805,-1.4530041,0.0004813464,-0.15614033,-4.8996096,-5.080661,-0.005967029,0.0119490735,-0.037355017,2.2759652,-1.9465346,1.8932946,1.5931796,-0.007935383,189.69801,19.244207,0.34748352,0.29547018,0.14323996,0.10317013,inf,inf,inf,inf,1,1,1,1,12,18,2,2,5,1,1,1,0,0,0
1005849421,1005847658,989553489,43.781812599999995,-79.4664648,-0.41791117,-0.03641467,-19.33748,-0.033358477,0.0802805,-1.4530041,-0.00064306706,-0.14372022,-4.934559,-5.1167293,-0.005967029,0.0119490735,-0.037355017,0.5031245,1.6035271,-3.4937654,1.5949718,-0.007935383,189.69801,19.75321,0.33869144,0.2900967,0.13822602,0.10127811,inf,inf,inf,inf,1,1,1,1,12,18,2,2,5,1,1,1,0,0,0
1005950767,1005946850,989553489,43.781812599999995,-79.4664648,-0.42372847,-0.05058424,-19.841381,-0.033358477,0.0802805,-1.4530041,0.036398653,-0.14634325,-4.911039,-5.0880284,-0.005967029,0.0119490735,-0.037355017,-1.2907478,1.6448877,-0.7835904,1.5939655,-0.007935383,189.69801,20.25711,0.3472335,0.29611138,0.1423869,0.103251725,inf,inf,inf,inf,1,1,1,1,12,18,2,2,5,1,1,1,0,0,0
1006047601,1006046036,989553489,43.781812599999995,-79.4664648,-0.43017435,-0.067333624,-20.345367,-0.033358477,0.0802805,-1.4530041,0.07943745,-0.12745056,-4.92799,-5.1007466,-0.005967029,0.0119490735,-0.037355017,2.0773597,-0.88056654,2.1330426,1.5893656,-0.007935383,189.69801,20.761097,0.33849287,0.2906993,0.13759805,0.10135259,inf,inf,inf,inf,1,1,1,1,12,18,2,2,5,1,1,1,0,0,0
1006158810,1006154243,989553489,43.781812599999995,-79.4664648,-0.42897666,-0.08214701,-20.89147,-0.033358477,0.0802805,-1.4530041,0.11144671,-0.07351336,-4.949002,-5.113079,-0.005967029,0.0119490735,-0.037355017,-1.3174229,1.9854985,-1.5605098,1.5812148,-0.007935383,189.69801,21.3072,0.3310072,0.28603595,0.13335294,0.09964445,inf,inf,inf,inf,1,1,1,1,12,18,2,2,5,1,1,1,0,0,0
1006246270,1006244421,989553489,43.781812599999995,-79.4664648,-0.42554325,-0.09122256,-21.35175,-0.033358477,0.0802805,-1.4530041,0.1400523,-0.019181136,-4.97214,-5.132812,-0.005967029,0.0119490735,-0.037355017,-0.081361145,1.467332,-2.495749,1.5751113,-0.007935383,189.69801,21.767479,0.3382975,0.29031482,0.13706358,0.101268426,inf,inf,inf,inf,1,1,1,1,12,18,2,2,5,1,1,1,0,0,0
1006355877,1006352621,989553489,43.781812599999995,-79.4664648,-0.4157378,-0.09654187,-21.901047,-0.033358477,0.0802805,-1.4530041,0.1687769,0.015836688,-4.973389,-5.1265306,-0.005967029,0.0119490735,-0.037355017,-1.2504745,1.0908536,-1.6550127,1.570483,-0.007935383,189.69801,22.316776,0.33083084,0.28566638,0.13292491,0.09956953,inf,inf,inf,inf,1,1,1,1,12,18,2,2,5,1,1,1,0,0,0
1006453389,1006451811,989553489,43.781812599999995,-79.4664648,-0.40599912,-0.10252667,-22.407915,-0.033358477,0.0802805,-1.4530041,0.2026465,0.04310996,-5.013218,-5.1618586,-0.005967029,0.0119490735,-0.037355017,1.7631505,0.37748325,-1.7422864,1.5685836,-0.007935383,189.69801,22.823645,0.33883747,0.29056147,0.13709575,0.10138776,inf,inf,inf,inf,1,1,1,1,12,18,2,2,5,1,1,1,0,0,0
1006553303,1006551002,989553489,43.781812599999995,-79.4664648,-0.39162156,-0.10436633,-22.916716,-0.033358477,0.0802805,-1.4530041,0.21403685,0.05938257,-5.005179,-5.149101,-0.005967029,0.0119490735,-0.037355017,-1.2794342,0.09390281,1.3141662,1.5671445,-0.007935383,189.69801,23.332445,0.33070856,0.28533623,0.13271883,0.09952437,inf,inf,inf,inf,1,1,1,1,12,18,2,2,5,1,1,1,0,0,0
1006651581,1006650189,989553489,43.781812599999995,-79.4664648,-0.3743206,-0.10442223,-23.428192,-0.033358477,0.0802805,-1.4530041,0.22774899,0.09555446,-5.041618,-5.182651,-0.005967029,0.0119490735,-0.037355017,2.0772266,-0.06704245,0.28819278,1.5668093,-0.007935383,189.69801,23.843922,0.33869252,0.29021925,0.13694252,0.10134089,inf,inf,inf,inf,1,1,1,1,12,18,2,2,5,1,1,1,0,0,0
1006752469,1006749378,989553489,43.781812599999995,-79.4664648,-0.35360268,-0.10028847,-23.937498,-0.033358477,0.0802805,-1.4530041,0.23282593,0.11424356,-5.0386825,-5.1739435,-0.005967029,0.0119490735,-0.037355017,-0.6455049,1.2882571,-1.7617344,1.5657561,-0.007935383,189.69801,24.353228,0.330541,0.28497225,0.13245024,0.09945983,inf,inf,inf,inf,1,1,1,1,12,18,2,2,5,1,1,1,0,0,0
1006851882,1006848567,989553489,43.781812599999995,-79.4664648,-0.3270482,-0.09425083,-24.451515,-0.033358477,0.0802805,-1.4530041,0.25259754,0.12518187,-5.059358,-5.192277,-0.005967029,0.0119490735,-0.037355017,-0.084736705,-0.68957686,2.7790701,1.565135,-0.007935383,189.69801,24.867245,0.33849826,0.2898459,0.13666834,0.101275556,inf,inf,inf,inf,1,1,1,1,12,18,2,2,5,1,1,1,0,0,0
1006952050,1006947757,989553489,43.781812599999995,-79.4664648,-0.29962283,-0.08597147,-24.964413,-0.033358477,0.0802805,-1.4530041,0.2550858,0.1350906,-5.0835414,-5.211809,-0.005967029,0.0119490735,-0.037355017,1.046622,-0.18087508,-0.23508537,1.5640757,-0.007935383,189.69801,25.380142,0.33037698,0.28555545,0.13228932,0.09955274,inf,inf,inf,inf,1,1,1,1,12,18,2,2,5,1,1,1,0,0,0
1007048537,1007046948,989553489,43.781812599999995,-79.4664648,-0.27064046,-0.07962362,-25.478672,-0.033358477,0.0802805,-1.4530041,0.25683346,0.12958144,-5.062169,-5.188277,-0.005967029,0.0119490735,-0.037355017,1.3298286,-1.3845845,0.2643759,1.5627164,-0.007935383,189.69801,25.894402,0.33831152,0.2904652,0.13636947,0.10137662,inf,inf,inf,inf,1,1,1,1,12,18,2,2,5,1,1,1,0,0,0
1007158045,1007155152,989553489,43.781812599999995,-79.4664648,-0.23976694,-0.071607776,-26.034342,-0.033358477,0.0802805,-1.4530041,0.24859527,0.11468239,-5.031769,-5.153232,-0.005967029,0.0119490735,-0.037355017,1.0492389,-0.98211473,2.4392507,1.562862,-0.007935383,189.69801,26.450071,0.33087128,0.2857808,0.13227914,0.099667266,inf,inf,inf,inf,1,1,1,1,12,18,2,2,5,1,1,1,0,0,0
1007246857,1007245324,989553489,43.781812599999995,-79.4664648,-0.21232207,-0.0644509,-26.498247,-0.033358477,0.0802805,-1.4530041,0.22300684,0.11427137,-5.0244346,-5.144242,-0.005967029,0.0119490735,-0.037355017,-2.9026663,0.7600995,-1.2077156,1.5626125,-0.007935383,189.69801,26.913977,0.3380743,0.2900687,0.1358617,0.10129494,inf,inf,inf,inf,1,1,1,1,12,18,2,2,5,1,1,1,0,0,0
1007357647,1007353531,989553489,43.781812599999995,-79.4664648,-0.18213043,-0.055641953,-27.051682,-0.033358477,0.0802805,-1.4530041,0.20377912,0.10359997,-5.0233746,-5.138363,-0.005967029,0.0119490735,-0.037355017,-1.3671958,0.46060854,-0.6116597,1.5632985,-0.007935383,189.69801,27.467411,0.33069095,0.2853968,0.13184403,0.09959026,inf,inf,inf,inf,1,1,1,1,12,18,2,2,5,1,1,1,0,0,0
1007454339,1007452720,989553489,43.781812599999995,-79.4664648,-0.1539511,-0.048232675,-27.561037,-0.033358477,0.0802805,-1.4530041,0.19467387,0.09433486,-5.033289,-5.1464434,-0.005967029,0.0119490735,-0.037355017,-0.08135434,-0.45300207,0.04798518,1.5646299,-0.007935383,189.69801,27.976767,0.3386086,0.29030526,0.1359237,0.10141155,inf,inf,inf,inf,1,1,1,1,12,18,2,2,5,1,1,1,0,0,0
1007554873,1007551909,989553489,43.781812599999995,-79.4664648,-0.12974319,-0.040299457,-28.069412,-0.033358477,0.0802805,-1.4530041,0.16236915,0.08407071,-5.04159,-5.150963,-0.005967029,0.0119490735,-0.037355017,1.0955844,-1.2923493,1.7405616,1.5642958,-0.007935383,189.69801,28.485142,0.33049667,0.2850044,0.13165106,0.099516675,inf,inf,inf,inf,1,1,1,1,12,18,2,2,5,1,1,1,0,0,0
1007652671,1007651098,989553489,43.781812599999995,-79.4664648,-0.10669822,-0.032505035,-28.579105,-0.033358477,0.0802805,-1.4530041,0.10889499,0.058805514,-5.0040717,-5.112758,-0.005967029,0.0119490735,-0.037355017,-2.1034286,0.9887656,1.9378036,1.5641078,-0.007935383,189.69801,28.994835,0.33839262,0.2898948,0.13578258,0.10133385,inf,inf,inf,inf,1,1,1,1,12,18,2,2,5,1,1,1,0,0,0
1007754219,1007750287,989553489,43.781812599999995,-79.4664648,-0.090940714,-0.0264597,-29.081947,-0.033358477,0.0802805,-1.4530041,0.047585104,0.045923583,-4.978345,-5.082532,-0.005967029,0.0119490735,-0.037355017,-1.8037405,0.9111721,0.95689523,1.5673214,-0.007935383,189.69801,29.497677,0.33031473,0.28462616,0.13148126,0.099448085,inf,inf,inf,inf,1,1,1,1,12,18,2,2,5,1,1,1,0,0,0
1007851291,1007849476,989553489,43.781812599999995,-79.4664648,-0.0794081,-0.022570413,-29.581512,-0.033358477,0.0802805,-1.4530041,-0.0141633805,0.03524707,-4.977132,-5.0757556,-0.005967029,0.0119490735,-0.037355017,-1.470206,0.7345984,1.0917856,1.5718861,-0.007935383,189.69801,29.997242,0.33818656,0.28950703,0.13551682,0.101264864,inf,inf,inf,inf,1,1,1,1,12,18,2,2,5,1,1,1,0,0,0
1007950955,1007948667,989553489,43.781812599999995,-79.4664648,-0.077825196,-0.017763153,-30.078321,-0.033358477,0.0802805,-1.4530041,-0.095762394,0.05970442,-5.0079465,-5.0967746,-0.005967029,0.0119490735,-0.037355017,2.1328611,-1.2613608,2.1200204,1.5771326,-0.007935383,189.69801,30.494051,0.34650615,0.2955307,0.13983214,0.103247575,inf,inf,inf,inf,1,1,1,1,12,18,2,2,5,1,1,1,0,0,0
1008049450,1008047855,989553489,43.781812599999995,-79.4664648,-0.08195944,-0.008987211,-30.578405,-0.033358477,0.0802805,-1.4530041,-0.17574652,0.09029846,-4.9753575,-5.0588765,-0.005967029,0.0119490735,-0.037355017,1.0985236,-1.2468228,2.458329,1.5828358,-0.007935383,189.69801,30.994135,0.33793956,0.29007405,0.13578635,0.10135054,inf,inf,inf,inf,1,1,1,1,12,18,2,2,5,1,1,1,0,0,0
1008148790,1008147043,989553489,43.781812599999995,-79.4664648,-0.09582281,0.0022283401,-31.069689,-0.033358477,0.0802805,-1.4530041,-0.24469028,0.10324227,-4.886647,-4.9624896,-0.005967029,0.0119490735,-0.037355017,0.120025955,-1.3512076,3.7682369,1.5871245,-0.007935383,189.69801,31.485418,0.34624186,0.29509962,0.14011832,0.10317308,inf,inf,inf,inf,1,1,1,1,12,18,2,2,5,1,1,1,0,0,0
1008257091,1008255249,989553489,43.781812599999995,-79.4664648,-0.11124687,0.013106883,-31.605782,-0.033358477,0.0802805,-1.4530041,-0.2811152,0.09157397,-4.9275646,-5.0001025,-0.005967029,0.0119490735,-0.037355017,0.8261676,-0.89651966,1.5705999,1.5926226,-0.007935383,189.69801,32.02151,0.33842185,0.29029363,0.13603659,0.10147456,inf,inf,inf,inf,1,1,1,1,12,18,2,2,5,1,1,1,0,0,0
1008347102,1008345421,989553489,43.781812599999995,-79.4664648,-0.1300169,0.02120909,-32.05342,-0.033358477,0.0802805,-1.4530041,-0.32603282,0.085915096,-4.9608946,-5.0277467,-0.005967029,0.0119490735,-0.037355017,-3.2247517,1.0606005,-1.0762266,1.5984737,-0.007935383,189.69801,32.46915,0.34596625,0.2946737,0.14012447,0.10309387,inf,inf,inf,inf,1,1,1,1,12,18,2,2,5,1,1,1,0,0,0
1008456049,1008453628,989553489,43.781812599999995,-79.4664648,-0.15663822,0.033823933,-32.594994,-0.033358477,0.0802805,-1.4530041,-0.32773402,0.07181842,-4.9887714,-5.05127,-0.005967029,0.0119490735,-0.037355017,1.7620759,-0.985932,-0.04013725,1.6017992,-0.007935383,189.69801,33.010723,0.33820614,0.28990033,0.13650846,0.10140455,inf,inf,inf,inf,1,1,1,1,12,18,2,2,5,1,1,1,0,0,0
1008555743,1008552816,989553489,43.781812599999995,-79.4664648,-0.18358554,0.042911224,-33.087074,-0.033358477,0.0802805,-1.4530041,-0.3349539,0.06348988,-4.974743,-5.030636,-0.005967029,0.0119490735,-0.037355017,-0.5832834,2.3955622,-2.876278,1.6029907,-0.007935383,189.69801,33.502804,0.33016303,0.2846196,0.13228446,0.09950916,inf,inf,inf,inf,1,1,1,1,12,18,2,2,5,1,1,1,0,0,0
1008653536,1008652005,989553489,43.781812599999995,-79.4664648,-0.21197124,0.04935956,-33.580708,-0.033358477,0.0802805,-1.4530041,-0.33691692,0.02846995,-4.961167,-5.012674,-0.005967029,0.0119490735,-0.037355017,-0.57541764,-1.0210487,-0.6347121,1.6022198,-0.007935383,189.69801,33.996437,0.33801323,0.28951955,0.13653924,0.1013276,inf,inf,inf,inf,1,1,1,1,12,18,2,2,5,1,1,1,0,0,0
1008755332,1008751193,989553489,43.781812599999995,-79.4664648,-0.24158363,0.052362166,-34.07065,-0.033358477,0.0802805,-1.4530041,-0.3166636,0.003934773,-4.9457617,-4.991513,-0.005967029,0.0119490735,-0.037355017,1.5410444,0.7830179,-1.3092597,1.6013494,-0.007935383,189.69801,34.486378,0.33001086,0.2842678,0.13231328,0.0994383,inf,inf,inf,inf,1,1,1,1,12,18,2,2,5,1,1,1,0,0,0
1008852752,1008850382,989553489,43.781812599999995,-79.4664648,-0.27601495,0.05362086,-34.56095,-0.033358477,0.0802805,-1.4530041,-0.29736617,-0.009807607,-4.95528,-4.996883,-0.005967029,0.0119490735,-0.037355017,0.6291739,1.1730542,-5.0638385,1.5997318,-0.007935383,189.69801,34.97668,0.33785477,0.28915417,0.13650307,0.1012511,inf,inf,inf,inf,1,1,1,1,12,18,2,2,5,1,1,1,0,0,0
1008951796,1008949571,989553489,43.781812599999995,-79.4664648,-0.30698344,0.053462286,-35.050827,-0.033358477,0.0802805,-1.4530041,-0.2723867,-0.0068678935,-4.960834,-4.997403,-0.005967029,0.0119490735,-0.037355017,-0.71121746,1.6648571,-2.414147,1.5988562,-0.007935383,189.69801,35.466557,0.3461603,0.2941445,0.14081861,0.10304828,inf,inf,inf,inf,1,1,1,1,12,18,2,2,5,1,1,1,0,0,0
1009051202,1009048771,989553489,43.781812599999995,-79.4664648,-0.33977142,0.05322951,-35.54297,-0.033358477,0.0802805,-1.4530041,-0.25998905,-0.02214175,-4.95407,-4.9871163,-0.005967029,0.0119490735,-0.037355017,-1.4894487,0.5381721,0.12254883,1.5958233,-0.007935383,189.69801,35.9587,0.3376521,0.28975147,0.13647929,0.10131641,inf,inf,inf,inf,1,1,1,1,12,18,2,2,5,1,1,1,0,0,0
1009152539,1009147948,989553489,43.781812599999995,-79.4664648,-0.37153226,0.051321864,-36.030087,-0.033358477,0.0802805,-1.4530041,-0.26890862,-0.037617385,-4.88386,-4.912866,-0.005967029,0.0119490735,-0.037355017,-1.6931093,2.0145755,-3.1560817,1.5932276,-0.007935383,189.69801,36.445816,0.32970852,0.28450042,0.13238485,0.09943182,inf,inf,inf,inf,1,1,1,1,12,18,2,2,5,1,1,1,0,0,0
1009257926,1009256154,989553489,43.781812599999995,-79.4664648,-0.4111967,0.043774538,-36.554066,-0.033358477,0.0802805,-1.4530041,-0.25126022,-0.08226581,-4.8553486,-4.8801384,-0.005967029,0.0119490735,-0.037355017,2.2943165,1.807186,-4.2994714,1.592181,-0.007935383,189.69801,36.969795,0.33827543,0.2900423,0.1367648,0.10144846,inf,inf,inf,inf,1,1,1,1,12,18,2,2,5,1,1,1,0,0,0
1009350323,1009346325,989553489,43.781812599999995,-79.4664648,-0.43955836,0.033660967,-36.984886,-0.033358477,0.0802805,-1.4530041,-0.21921232,-0.12965372,-4.8255415,-4.84444,-0.005967029,0.0119490735,-0.037355017,0.7750101,0.12124163,-1.1542274,1.5933275,-0.007935383,189.69801,37.400616,0.3296128,0.28418562,0.13223591,0.09937145,inf,inf,inf,inf,1,1,1,1,12,18,2,2,5,1,1,1,0,0,0
1009455965,1009454531,989553489,43.781812599999995,-79.4664648,-0.46928272,0.018243626,-37.503853,-0.033358477,0.0802805,-1.4530041,-0.16826156,-0.20882341,-4.8346076,-4.848714,-0.005967029,0.0119490735,-0.037355017,-0.8622263,0.6804889,-3.0283198,1.5947349,-0.007935383,189.69801,37.919582,0.33817238,0.28971773,0.1368711,0.101376705,inf,inf,inf,inf,1,1,1,1,12,18,2,2,5,1,1,1,0,0,0
1009556637,1009553719,989553489,43.781812599999995,-79.4664648,-0.4892469,-0.0027817278,-37.976562,-0.033358477,0.0802805,-1.4530041,-0.11227736,-0.25876626,-4.835871,-4.8424144,-0.005967029,0.0119490735,-0.037355017,0.39796916,-0.3937133,0.109576,1.5983304,-0.007935383,189.69801,38.392292,0.33017918,0.28445363,0.13277797,0.09947082,inf,inf,inf,inf,1,1,1,1,12,18,2,2,5,1,1,1,0,0,0
1009654569,1009652908,989553489,43.781812599999995,-79.4664648,-0.5070548,-0.023783112,-38.445126,-0.033358477,0.0802805,-1.4530041,-0.08159046,-0.28976613,-4.8388844,-4.834708,-0.005967029,0.0119490735,-0.037355017,-0.9680824,0.4969877,-0.73401487,1.5974492,-0.007935383,189.69801,38.860855,0.3380442,0.28936395,0.13712768,0.1012805,inf,inf,inf,inf,1,1,1,1,12,18,2,2,5,1,1,1,0,0,0
1009755447,1009752097,989553489,43.781812599999995,-79.4664648,-0.51934475,-0.04859913,-38.91013,-0.033358477,0.0802805,-1.4530041,-0.04237626,-0.30973786,-4.8465943,-4.8288856,-0.005967029,0.0119490735,-0.037355017,0.03853016,0.6778907,-1.839229,1.5961695,-0.007935383,189.69801,39.32586,0.33006436,0.28411657,0.1330362,0.09938652,inf,inf,inf,inf,1,1,1,1,12,18,2,2,5,1,1,1,0,0,0
1009853528,1009851285,989553489,43.781812599999995,-79.4664648,-0.5290917,-0.07109901,-39.37616,-0.033358477,0.0802805,-1.4530041,-0.016607491,-0.30929387,-4.853487,-4.8237457,-0.005967029,0.0119490735,-0.037355017,-1.7916636,1.7428893,-1.8749684,1.5930606,-0.007935383,189.69801,39.79189,0.33792993,0.28900796,0.13745622,0.101191856,inf,inf,inf,inf,1,1,1,1,12,18,2,2,5,1,1,1,0,0,0
1009954635,1009950474,989553489,43.781812599999995,-79.4664648,-0.53504175,-0.09473505,-39.840855,-0.033358477,0.0802805,-1.4530041,0.008388693,-0.2931321,-4.855349,-4.8134384,-0.005967029,0.0119490735,-0.037355017,-0.6296687,2.0901158,-2.7725863,1.5902053,-0.007935383,189.69801,40.256584,0.32996,0.28377753,0.13326436,0.09930443,inf,inf,inf,inf,1,1,1,1,12,18,2,2,5,1,1,1,0,0,0
1010051569,1010049662,989553489,43.781812599999995,-79.4664648,-0.54147506,-0.11812891,-40.30416,-0.033358477,0.0802805,-1.4530041,0.04575748,-0.28466582,-4.8438034,-4.7902446,-0.005967029,0.0119490735,-0.037355017,-0.32144082,1.4349608,-2.3585603,1.5889285,-0.007935383,189.69801,40.71989,0.33782905,0.2896412,0.13761629,0.10127268,inf,inf,inf,inf,1,1,1,1,12,18,2,2,5,1,1,1,0,0,0
1010150512,1010148852,989553489,43.781812599999995,-79.4664648,-0.54135215,-0.14213225,-40.766243,-0.033358477,0.0802805,-1.4530041,0.08198225,-0.28597853,-4.850318,-4.7850847,-0.005967029,0.0119490735,-0.037355017,-1.6995144,0.81851584,-1.892095,1.5867051,-0.007935383,189.69801,41.181973,0.3461699,0.2946773,0.14204566,0.10307481,inf,inf,inf,inf,1,1,1,1,12,18,2,2,5,1,1,1,0,0,0
1010250518,1010248039,989553489,43.781812599999995,-79.4664648,-0.53858757,-0.16987795,-41.230267,-0.033358477,0.0802805,-1.4530041,0.11763549,-0.2948665,-4.8710375,-4.7946634,-0.005967029,0.0119490735,-0.037355017,-1.1440454,-0.5208849,1.1599658,1.587335,-0.007935383,189.69801,41.645996,0.3376846,0.28926492,0.13780327,0.10116989,inf,inf,inf,inf,1,1,1,1,12,18,2,2,5,1,1,1,0,0,0
1010349054,1010347229,989553489,43.781812599999995,-79.4664648,-0.5308378,-0.19741379,-41.69542,-0.033358477,0.0802805,-1.4530041,0.14555605,-0.2818939,-4.9053564,-4.816963,-0.005967029,0.0119490735,-0.037355017,-0.36243105,-0.7887828,1.0399084,1.5894104,-0.007935383,189.69801,42.11115,0.34602872,0.294289,0.14239627,0.1029716,inf,inf,inf,inf,1,1,1,1,12,18,2,2,5,1,1,1,0,0,0
1010449407,1010446416,989553489,43.781812599999995,-79.4664648,-0.5212979,-0.2245167,-42.162975,-0.033358477,0.0802805,-1.4530041,0.16124599,-0.24467044,-4.9385405,-4.839925,-0.005967029,0.0119490735,-0.037355017,-1.0939411,1.6052737,-1.8556448,1.5902448,-0.007935383,189.69801,42.578705,0.337553,0.28889245,0.13810588,0.10107467,inf,inf,inf,inf,1,1,1,1,12,18,2,2,5,1,1,1,0,0,0
1010557958,1010554621,989553489,43.781812599999995,-79.4664648,-0.50719506,-0.25059202,-42.677135,-0.033358477,0.0802805,-1.4530041,0.18486257,-0.21863501,-4.9548116,-4.8467493,-0.005967029,0.0119490735,-0.037355017,-1.1260332,-1.1698773,3.6612718,1.5882534,-0.007935383,189.69801,43.092865,0.33025897,0.28425118,0.13421914,0.09936811,inf,inf,inf,inf,1,1,1,1,12,18,2,2,5,1,1,1,0,0,0
1010655466,1010653809,989553489,43.781812599999995,-79.4664648,-0.49585462,-0.27651003,-43.152485,-0.033358477,0.0802805,-1.4530041,0.19693029,-0.21005395,-4.9761195,-4.863171,-0.005967029,0.0119490735,-0.037355017,0.6241116,0.06339355,-1.6454859,1.5850499,-0.007935383,189.69801,43.568214,0.33817852,0.28916246,0.13873076,0.10117807,inf,inf,inf,inf,1,1,1,1,12,18,2,2,5,1,1,1,0,0,0
1010756853,1010752998,989553489,43.781812599999995,-79.4664648,-0.48098248,-0.30118963,-43.630257,-0.033358477,0.0802805,-1.4530041,0.2225591,-0.21337701,-5.0116525,-4.8937516,-0.005967029,0.0119490735,-0.037355017,-0.0287375,-1.6616452,1.9908692,1.5850132,-0.007935383,189.69801,44.045986,0.33015406,0.2839148,0.13439992,0.099287845,inf,inf,inf,inf,1,1,1,1,12,18,2,2,5,1,1,1,0,0,0
1010853980,1010852186,989553489,43.781812599999995,-79.4664648,-0.46384078,-0.3258778,-44.11323,-0.033358477,0.0802805,-1.4530041,0.23623334,-0.1853413,-5.048093,-4.927066,-0.005967029,0.0119490735,-0.037355017,0.7843149,-0.5111308,1.27404,1.5877869,-0.007935383,189.69801,44.52896,0.33807963,0.28881145,0.13899755,0.10109525,inf,inf,inf,inf,1,1,1,1,12,18,2,2,5,1,1,1,0,0,0
1010954761,1010951375,989553489,43.781812599999995,-79.4664648,-0.44434547,-0.34680668,-44.599335,-0.033358477,0.0802805,-1.4530041,0.23415837,-0.14335123,-5.086042,-4.962789,-0.005967029,0.0119490735,-0.037355017,1.2748927,0.58777493,-2.1079571,1.5920919,-0.007935383,189.69801,45.015064,0.330061,0.28358048,0.13466462,0.09921043,inf,inf,inf,inf,1,1,1,1,12,18,2,2,5,1,1,1,0,0,0
1011052410,1011050562,989553489,43.781812599999995,-79.4664648,-0.42490703,-0.36581114,-45.08857,-0.033358477,0.0802805,-1.4530041,0.23973823,-0.109798394,-5.0300956,-4.907381,-0.005967029,0.0119490735,-0.037355017,-0.1371374,-1.0429958,3.71557,1.5949048,-0.007935383,189.69801,45.5043,0.33799487,0.2894433,0.13917573,0.10117703,inf,inf,inf,inf,1,1,1,1,12,18,2,2,5,1,1,1,0,0,0
1011152867,1011149750,989553489,43.781812599999995,-79.4664648,-0.40573823,-0.38064855,-45.570435,-0.033358477,0.0802805,-1.4530041,0.20600873,-0.06958692,-4.945792,-4.823678,-0.005967029,0.0119490735,-0.037355017,2.8534915,-0.19236009,1.5609748,1.5978397,-0.007935383,189.69801,45.986164,0.33000705,0.28418216,0.13457327,0.099287815,inf,inf,inf,inf,1,1,1,1,12,18,2,2,5,1,1,1,0,0,0
1011250622,1011248938,989553489,43.781812599999995,-79.4664648,-0.3872936,-0.39626336,-46.03905,-0.033358477,0.0802805,-1.4530041,0.17603976,-0.055670943,-4.700777,-4.5806828,-0.005967029,0.0119490735,-0.037355017,0.8547097,-3.0673597,5.6800294,1.5997986,-0.007935383,189.69801,46.45478,0.33793548,0.28910768,0.13857001,0.10110498,inf,inf,inf,inf,1,1,1,1,12,18,2,2,5,1,1,1,0,0,0
1011350806,1011348127,989553489,43.781812599999995,-79.4664648,-0.37209168,-0.40678152,-46.477097,-0.033358477,0.0802805,-1.4530041,0.11510888,-0.014517309,-4.3631725,-4.2446966,-0.005967029,0.0119490735,-0.037355017,-4.6817937,0.20538105,3.9625742,1.5998695,-0.007935383,189.69801,46.892826,0.3463256,0.29413465,0.14202859,0.10290594,inf,inf,inf,inf,1,1,1,1,12,18,2,2,5,1,1,1,0,0,0
1011449715,1011447315,989553489,43.781812599999995,-79.4664648,-0.35686898,-0.41406617,-46.8926,-0.033358477,0.0802805,-1.4530041,0.07439487,0.018492952,-3.9435203,-3.840323,-0.005967029,0.0119490735,-0.037355017,-1.1738662,1.9530222,4.093891,1.5990367,-0.007935383,189.69801,47.30833,0.33781362,0.28873387,0.13633895,0.101015285,inf,inf,inf,inf,1,1,1,1,12,18,2,2,5,1,1,1,0,0,0
1011558644,1011555520,989553489,43.781812599999995,-79.4664648,-0.34704185,-0.416186,-47.293488,-0.033358477,0.0802805,-1.4530041,0.02071393,0.068910874,-3.4681861,-3.3768525,-0.005967029,0.0119490735,-0.037355017,2.5510511,1.680922,3.331422,1.5965889,-0.007935383,189.69801,47.709217,0.33056515,0.2840925,0.13115029,0.099317096,inf,inf,inf,inf,1,1,1,1,12,18,2,2,5,1,1,1,0,0,0
1011647382,1011645690,989553489,43.781812599999995,-79.4664648,-0.34169164,-0.415896,-47.602882,-0.033358477,0.0802805,-1.4530041,-0.053873263,0.08896584,-3.0492225,-2.9822512,-0.005967029,0.0119490735,-0.037355017,-4.7017717,-1.8193052,7.4162498,1.5913575,-0.007935383,189.69801,48.018612,0.33767042,0.28837758,0.13366278,0.100935675,inf,inf,inf,inf,1,1,1,1,12,18,2,2,5,1,1,1,0,0,0
1011756635,1011753900,989553489,43.781812599999995,-79.4664648,-0.34355134,-0.40992492,-47.924576,-0.033358477,0.0802805,-1.4530041,-0.09657936,0.12554283,-2.6171844,-2.5727456,-0.005967029,0.0119490735,-0.037355017,3.8902118,-2.2269108,5.3386035,1.586259,-0.007935383,189.69801,48.340305,0.33053797,0.28377855,0.12879509,0.09926735,inf,inf,inf,inf,1,1,1,1,12,18,2,2,5,1,1,1,0,0,0
1011854660,1011853083,989553489,43.781812599999995,-79.4664648,-0.35026422,-0.40021068,-48.19442,-0.033358477,0.0802805,-1.4530041,-0.15276968,0.16054325,-2.2706513,-2.2572882,-0.005967029,0.0119490735,-0.037355017,-0.86931694,-0.4631732,3.9831634,1.5817832,-0.007935383,189.69801,48.61015,0.33829254,0.28868327,0.13187158,0.10108509,inf,inf,inf,inf,1,1,1,1,12,18,2,2,5,1,1,1,0,0,0
1011955652,1011952271,989553489,43.781812599999995,-79.4664648,-0.36232495,-0.38634175,-48.421917,-0.033358477,0.0802805,-1.4530041,-0.1929062,0.18184933,-1.9715301,-1.9760562,-0.005967029,0.0119490735,-0.037355017,-2.4903622,-1.8418941,3.9053743,1.5795614,-0.007935383,189.69801,48.837646,0.33041954,0.28344518,0.12728642,0.09920372,inf,inf,inf,inf,1,1,1,1,12,18,2,2,5,1,1,1,0,0,0
1012053205,1012051459,989553489,43.781812599999995,-79.4664648,-0.37697795,-0.3695596,-48.63714,-0.033358477,0.0802805,-1.4530041,-0.20865294,0.19400962,-1.6851318,-1.7203861,-0.005967029,0.0119490735,-0.037355017,2.9402628,-2.567504,6.8174295,1.5782552,-0.007935383,189.69801,49.052868,0.33811387,0.2893104,0.13058741,0.10118055,inf,inf,inf,inf,1,1,1,1,12,18,2,2,5,1,1,1,0,0,0
1012153895,1012150647,989553489,43.781812599999995,-79.4664648,-0.39629096,-0.3509548,-48.814545,-0.033358477,0.0802805,-1.4530041,-0.26621622,0.21595705,-1.4474702,-1.4990952,-0.005967029,0.0119490735,-0.037355017,-3.733097,2.6324003,0.6257577,1.5794097,-0.007935383,189.69801,49.230274,0.33027416,0.2840366,0.1264728,0.09929496,inf,inf,inf,inf,1,1,1,1,12,18,2,2,5,1,1,1,0,0,0
1012251469,1012249835,989553489,43.781812599999995,-79.4664648,-0.41905415,-0.33042192,-48.980724,-0.033358477,0.0802805,-1.4530041,-0.26020232,0.23027475,-1.2435086,-1.320672,-0.005967029,0.0119490735,-0.037355017,1.712615,-1.1240305,3.2446742,1.5831163,-0.007935383,189.69801,49.396454,0.33792907,0.28896582,0.12986699,0.1011186,inf,inf,inf,inf,1,1,1,1,12,18,2,2,5,1,1,1,0,0,0
1012350614,1012349022,989553489,43.781812599999995,-79.4664648,-0.44372582,-0.30681482,-49.115883,-0.033358477,0.0802805,-1.4530041,-0.2917144,0.25712284,-1.0692245,-1.1556329,-0.005967029,0.0119490735,-0.037355017,-7.350514,2.2738228,1.912155,1.5854149,-0.007935383,189.69801,49.531612,0.34598535,0.29399675,0.13356033,0.10292415,inf,inf,inf,inf,1,1,1,1,12,18,2,2,5,1,1,1,0,0,0
1012450978,1012448211,989553489,43.781812599999995,-79.4664648,-0.4679453,-0.28057662,-49.240837,-0.033358477,0.0802805,-1.4530041,-0.2869188,0.26507267,-0.91284686,-1.0142277,-0.005967029,0.0119490735,-0.037355017,-1.250356,1.6092986,2.7998302,1.586488,-0.007935383,189.69801,49.656567,0.33769685,0.28858396,0.12963513,0.101022966,inf,inf,inf,inf,1,1,1,1,12,18,2,2,5,1,1,1,0,0,0
1012548824,1012547398,989553489,43.781812599999995,-79.4664648,-0.49315646,-0.25366005,-49.34063,-0.033358477,0.0802805,-1.4530041,-0.27045676,0.26856095,-0.7817485,-0.88602865,-0.005967029,0.0119490735,-0.037355017,4.7101254,-0.5441638,2.4465303,1.5902289,-0.007935383,189.69801,49.75636,0.3457351,0.29360306,0.13347916,0.10282752,inf,inf,inf,inf,1,1,1,1,12,18,2,2,5,1,1,1,0,0,0
1012648354,1012646585,989553489,43.781812599999995,-79.4664648,-0.51324713,-0.22520511,-49.42821,-0.033358477,0.0802805,-1.4530041,-0.25605667,0.25673077,-0.6240632,-0.7329337,-0.005967029,0.0119490735,-0.037355017,1.6700428,-1.6201214,4.8704343,1.5925877,-0.007935383,189.69801,49.84394,0.337481,0.2881967,0.12979567,0.10093369,inf,inf,inf,inf,1,1,1,1,12,18,2,2,5,1,1,1,0,0,0
1012747568,1012745783,989553489,43.781812599999995,-79.4664648,-0.5342926,-0.19785812,-49.49416,-0.033358477,0.0802805,-1.4530041,-0.25795722,0.24854133,-0.51516205,-0.6194156,-0.005967029,0.0119490735,-0.037355017,-0.33561268,-0.45945472,2.6584325,1.5965883,-0.007935383,189.69801,49.90989,0.34551296,0.29319966,0.13359386,0.10272527,inf,inf,inf,inf,1,1,1,1,12,18,2,2,5,1,1,1,0,0,0
1012855789,1012853977,989553489,43.781812599999995,-79.4664648,-0.5568659,-0.16943017,-49.553062,-0.033358477,0.0802805,-1.4530041,-0.26272342,0.22840184,-0.4444565,-0.54245424,-0.005967029,0.0119490735,-0.037355017,-3.2713227,0.45653126,-0.18753183,1.6011603,-0.007935383,189.69801,49.968792,0.33797643,0.28844255,0.13030788,0.1010307,inf,inf,inf,inf,1,1,1,1,12,18,2,2,5,1,1,1,0,0,0
1012957552,1012953172,989553489,43.781812599999995,-79.4664648,-0.5769059,-0.14694594,-49.595116,-0.033358477,0.0802805,-1.4530041,-0.22806387,0.18541324,-0.3888747,-0.47622633,-0.005967029,0.0119490735,-0.037355017,-2.2912302,-0.20740092,-2.537249,1.6060711,-0.007935383,189.69801,50.010845,0.33012086,0.28315946,0.12679216,0.09912991,inf,inf,inf,inf,1,1,1,1,12,18,2,2,5,1,1,1,0,0,0
1013054279,1013052352,989553489,43.781812599999995,-79.4664648,-0.5931394,-0.12730345,-49.627396,-0.033358477,0.0802805,-1.4530041,-0.18872431,0.14902742,-0.34052882,-0.41430366,-0.005967029,0.0119490735,-0.037355017,1.3307846,-1.189593,-0.4085976,1.6114856,-0.007935383,189.69801,50.043125,0.33778659,0.28805104,0.13095316,0.10092701,inf,inf,inf,inf,1,1,1,1,12,18,2,2,5,1,1,1,0,0,0
1013153130,1013151539,989553489,43.781812599999995,-79.4664648,-0.60706466,-0.11105081,-49.65148,-0.033358477,0.0802805,-1.4530041,-0.13558033,0.11905592,-0.2904114,-0.34819558,-0.005967029,0.0119490735,-0.037355017,5.513594,-2.9264035,1.7782952,1.6146202,-0.007935383,189.69801,50.06721,0.34588474,0.29407424,0.13522969,0.10288844,inf,inf,inf,inf,1,1,1,1,12,18,2,2,5,1,1,1,0,0,0
1013252338,1013250727,989553489,43.781812599999995,-79.4664648,-0.6149912,-0.09548269,-49.666306,-0.033358477,0.0802805,-1.4530041,-0.1257334,0.123950675,-0.27542046,-0.31411165,-0.005967029,0.0119490735,-0.037355017,-1.6037794,3.1681955,-3.9112616,1.6142473,-0.007935383,189.69801,50.082035,0.3375658,0.288606,0.1317207,0.100970924,inf,inf,inf,inf,1,1,1,1,12,18,2,2,5,1,1,1,0,0,0
1013351314,1013349914,989553489,43.781812599999995,-79.4664648,-0.62010443,-0.082555935,-49.677986,-0.033358477,0.0802805,-1.4530041,-0.06627197,0.08869836,-0.2334555,-0.25503418,-0.005967029,0.0119490735,-0.037355017,0.22160974,-1.6873269,1.4586184,1.6124922,-0.007935383,189.69801,50.093716,0.34568495,0.2936355,0.13607961,0.10276033,inf,inf,inf,inf,1,1,1,1,12,18,2,2,5,1,1,1,0,0,0
1013450733,1013449101,989553489,43.781812599999995,-79.4664648,-0.6238563,-0.07037075,-49.682175,-0.033358477,0.0802805,-1.4530041,-0.036167823,0.07919182,-0.23592882,-0.23623146,-0.005967029,0.0119490735,-0.037355017,-1.4598792,0.62973577,-0.79698896,1.6086601,-0.007935383,189.69801,50.097904,0.3373759,0.28819233,0.132547,0.10085196,inf,inf,inf,inf,1,1,1,1,12,18,2,2,5,1,1,1,0,0,0
1013552683,1013548290,989553489,43.781812599999995,-79.4664648,-0.6237498,-0.060449507,-49.686977,-0.033358477,0.0802805,-1.4530041,0.011699712,0.07695514,-0.25189567,-0.23446518,-0.005967029,0.0119490735,-0.037355017,4.67117,-0.4782802,-3.625421,1.6048841,-0.007935383,189.69801,50.102707,0.32955,0.2829095,0.12912963,0.0989602,inf,inf,inf,inf,1,1,1,1,12,18,2,2,5,1,1,1,0,0,0
1013650168,1013647476,989553489,43.781812599999995,-79.4664648,-0.61863506,-0.05366934,-49.68789,-0.033358477,0.0802805,-1.4530041,0.07765593,0.029153919,-0.2208165,-0.18303521,-0.005967029,0.0119490735,-0.037355017,2.879406,-3.3225596,3.3618789,1.6020097,-0.007935383,189.69801,50.10362,0.33727843,0.28780782,0.13373917,0.10076121,inf,inf,inf,inf,1,1,1,1,12,18,2,2,5,1,1,1,0,0,0
1013749065,1013746672,989553489,43.781812599999995,-79.4664648,-0.60831535,-0.04926123,-49.690487,-0.033358477,0.0802805,-1.4530041,0.09990226,0.03808364,-0.23078364,-0.17865853,-0.005967029,0.0119490735,-0.037355017,-1.7884151,0.40451953,-1.5353508,1.5980645,-0.007935383,189.69801,50.106216,0.3454667,0.29281506,0.13830002,0.1025438,inf,inf,inf,inf,1,1,1,1,12,18,2,2,5,1,1,1,0,0,0
1013856308,1013854877,989553489,43.781812599999995,-79.4664648,-0.5943177,-0.048011616,-49.688675,-0.033358477,0.0802805,-1.4530041,0.16251415,-0.0011173609,-0.2209549,-0.14840484,-0.005967029,0.0119490735,-0.037355017,2.8901458,-2.8796117,2.1344976,1.5946587,-0.007935383,189.69801,50.104404,0.337877,0.28802544,0.13515931,0.10084342,inf,inf,inf,inf,1,1,1,1,12,18,2,2,5,1,1,1,0,0,0
1013946491,1013945038,989553489,43.781812599999995,-79.4664648,-0.5824306,-0.04858704,-49.670803,-0.033358477,0.0802805,-1.4530041,0.09462119,0.0006107796,0.2904338,0.37371355,-0.005967029,0.0119490735,-0.037355017,-1.1152614,0.254998,4.898298,1.5951544,-0.007935383,189.69801,50.086533,0.34537187,0.29340696,0.13934183,0.10260389,inf,inf,inf,inf,1,1,1,1,12,18,2,2,5,1,1,1,0,0,0
1014055086,1014053242,989553489,43.781812599999995,-79.4664648,-0.57582384,-0.051875126,-49.569267,-0.033358477,0.0802805,-1.4530041,0.017160315,0.0022977123,1.0710266,1.1699468,-0.005967029,0.0119490735,-0.037355017,-2.8103185,0.0759784,6.498947,1.6016464,-0.007935383,189.69801,49.984997,0.33772644,0.28761953,0.13352834,0.10075179,inf,inf,inf,inf,1,1,1,1,12,18,2,2,5,1,1,1,0,0,0
1014156302,1014152429,989553489,43.781812599999995,-79.4664648,-0.57468426,-0.0532829,-49.4131,-0.033358477,0.0802805,-1.4530041,-0.0264313,0.0095864525,1.7924241,1.8937045,-0.005967029,0.0119490735,-0.037355017,-2.9714906,-0.52115846,9.05084,1.605211,-0.007935383,189.69801,49.82883,0.32989657,0.2832494,0.12767287,0.09902382,inf,inf,inf,inf,1,1,1,1,12,18,2,2,5,1,1,1,0,0,0
1014253192,1014251616,989553489,43.781812599999995,-79.4664648,-0.5718934,-0.050489895,-49.215874,-0.033358477,0.0802805,-1.4530041,-0.06530947,0.01857388,2.4519444,2.5284638,-0.005967029,0.0119490735,-0.037355017,-1.5929353,-1.2087892,6.5037045,1.6021365,-0.007935383,189.69801,49.631603,0.33756214,0.2881804,0.12963286,0.10083259,inf,inf,inf,inf,1,1,1,1,12,18,2,2,5,1,1,1,0,0,0
1014353732,1014350807,989553489,43.781812599999995,-79.4664648,-0.57510024,-0.047213733,-48.961597,-0.033358477,0.0802805,-1.4530041,-0.09628152,0.029969277,3.0940802,3.1410534,-0.005967029,0.0119490735,-0.037355017,1.689844,0.8377151,5.4499416,1.5949695,-0.007935383,189.69801,49.377327,0.32980034,0.28287157,0.124535255,0.09894504,inf,inf,inf,inf,1,1,1,1,12,18,2,2,5,1,1,1,0,0,0
1014451703,1014449991,989553489,43.781812599999995,-79.4664648,-0.5846698,-0.04486721,-48.671925,-0.033358477,0.0802805,-1.4530041,-0.14474247,0.02288083,3.7083516,3.7026498,-0.005967029,0.0119490735,-0.037355017,-2.7313583,-0.42503873,4.387973,1.5828847,-0.007935383,189.69801,49.087654,0.3373526,0.28779325,0.12677717,0.10075095,inf,inf,inf,inf,1,1,1,1,12,18,2,2,5,1,1,1,0,0,0
1014552535,1014549178,989553489,43.781812599999995,-79.4664648,-0.598456,-0.043435294,-48.32065,-0.033358477,0.0802805,-1.4530041,-0.17542619,0.006740134,4.324828,4.273432,-0.005967029,0.0119490735,-0.037355017,-0.6931501,-1.4689941,7.8445,1.5695589,-0.007935383,189.69801,48.736378,0.32967213,0.28250137,0.122241154,0.09887005,inf,inf,inf,inf,1,1,1,1,12,18,2,2,5,1,1,1,0,0,0
1014650896,1014648365,989553489,43.781812599999995,-79.4664648,-0.615849,-0.04289371,-47.930542,-0.033358477,0.0802805,-1.4530041,-0.20765257,0.0064372886,4.8402925,4.7314377,-0.005967029,0.0119490735,-0.037355017,-1.3968409,0.5572257,2.595088,1.5550131,-0.007935383,189.69801,48.34627,0.3371271,0.28740993,0.12473289,0.100674264,inf,inf,inf,inf,1,1,1,1,12,18,2,2,5,1,1,1,0,0,0
1014750087,1014747552,989553489,43.781812599999995,-79.4664648,-0.6368246,-0.042563003,-47.480892,-0.033358477,0.0802805,-1.4530041,-0.24262524,-0.004144795,5.388512,5.2358923,-0.005967029,0.0119490735,-0.037355017,-1.9940985,-2.3064709,7.973377,1.540947,-0.007935383,189.69801,47.89662,0.34491843,0.29242358,0.12732269,0.10246312,inf,inf,inf,inf,1,1,1,1,12,18,2,2,5,1,1,1,0,0,0
1014857349,1014855756,989553489,43.781812599999995,-79.4664648,-0.66513205,-0.040617898,-46.94735,-0.033358477,0.0802805,-1.4530041,-0.26832774,-0.017010715,5.9174695,5.707301,-0.005967029,0.0119490735,-0.037355017,0.19776696,-0.8821782,5.416776,1.5298018,-0.007935383,189.69801,47.36308,0.3374968,0.287635,0.123516984,0.10076966,inf,inf,inf,inf,1,1,1,1,12,18,2,2,5,1,1,1,0,0,0
1014948472,1014945930,989553489,43.781812599999995,-79.4664648,-0.69128704,-0.040640976,-46.45213,-0.033358477,0.0802805,-1.4530041,-0.3010741,-0.024421802,6.3233953,6.079188,-0.005967029,0.0119490735,-0.037355017,-0.7284242,-0.15899199,3.780747,1.5259199,-0.007935383,189.69801,46.86786,0.34452155,0.29200652,0.1260749,0.10236071,inf,inf,inf,inf,1,1,1,1,12,18,2,2,5,1,1,1,0,0,0
1015056039,1015054130,989553489,43.781812599999995,-79.4664648,-0.72801375,-0.039064024,-45.81756,-0.033358477,0.0802805,-1.4530041,-0.33759496,-0.029140094,6.788019,6.500473,-0.005967029,0.0119490735,-0.037355017,-1.89735,-0.9278602,4.931629,1.5285009,-0.007935383,189.69801,46.233288,0.3371708,0.28724045,0.12271051,0.10067695,inf,inf,inf,inf,1,1,1,1,12,18,2,2,5,1,1,1,0,0,0
1015156463,1015153327,989553489,43.781812599999995,-79.4664648,-0.7638119,-0.03876244,-45.184727,-0.033358477,0.0802805,-1.4530041,-0.3554884,-0.034438845,7.1998982,6.8856335,-0.005967029,0.0119490735,-0.037355017,-0.06244167,-0.048198655,6.3695655,1.535815,-0.007935383,189.69801,45.600456,0.32954156,0.28287604,0.11920089,0.098942466,inf,inf,inf,inf,1,1,1,1,12,18,2,2,5,1,1,1,0,0,0
1015254040,1015252504,989553489,43.781812599999995,-79.4664648,-0.80062,-0.0384182,-44.508232,-0.033358477,0.0802805,-1.4530041,-0.3640657,-0.042632174,7.601427,7.2657547,-0.005967029,0.0119490735,-0.037355017,-0.49941766,-0.24368517,2.645786,1.5459846,-0.007935383,189.69801,44.92396,0.33685255,0.28781348,0.12220988,0.10074623,inf,inf,inf,inf,1,1,1,1,12,18,2,2,5,1,1,1,0,0,0
1015355815,1015351691,989553489,43.781812599999995,-79.4664648,-0.8379503,-0.03980033,-43.787575,-0.033358477,0.0802805,-1.4530041,-0.37602785,-0.051048573,7.9793468,7.6302595,-0.005967029,0.0119490735,-0.037355017,-0.95876646,0.042550787,5.0774894,1.5581377,-0.007935383,189.69801,44.203304,0.32926518,0.28250617,0.118815355,0.09885502,inf,inf,inf,inf,1,1,1,1,12,18,2,2,5,1,1,1,0,0,0
1015452817,1015450881,989553489,43.781812599999995,-79.4664648,-0.8756975,-0.041545887,-43.02269,-0.033358477,0.0802805,-1.4530041,-0.38222456,-0.0606415,8.344515,7.990298,-0.005967029,0.0119490735,-0.037355017,0.46572238,0.6560101,2.2268157,1.5765674,-0.007935383,189.69801,43.43842,0.33654958,0.28743386,0.12193394,0.100654475,inf,inf,inf,inf,1,1,1,1,12,18,2,2,5,1,1,1,0,0,0
1015553357,1015550065,989553489,43.781812599999995,-79.4664648,-0.9144568,-0.045259245,-42.21949,-0.033358477,0.0802805,-1.4530041,-0.39107406,-0.071477056,8.681868,8.3257265,-0.005967029,0.0119490735,-0.037355017,0.3962706,0.0020799008,2.1406484,1.5988168,-0.007935383,189.69801,42.63522,0.32899573,0.2821387,0.118685395,0.09876776,inf,inf,inf,inf,1,1,1,1,12,18,2,2,5,1,1,1,0,0,0
1015651119,1015649253,989553489,43.781812599999995,-79.4664648,-0.9532626,-0.050531182,-41.37491,-0.033358477,0.0802805,-1.4530041,-0.3853662,-0.08987754,8.923979,8.577381,-0.005967029,0.0119490735,-0.037355017,0.8358576,0.22787279,1.591698,1.6124954,-0.007935383,189.69801,41.790638,0.33626652,0.28705674,0.12191167,0.10056447,inf,inf,inf,inf,1,1,1,1,12,18,2,2,5,1,1,1,0,0,0
1015751612,1015748442,989553489,43.781812599999995,-79.4664648,-0.9914865,-0.05820929,-40.511208,-0.033358477,0.0802805,-1.4530041,-0.38001806,-0.10221026,9.091958,8.754182,-0.005967029,0.0119490735,-0.037355017,-1.399216,-1.3137094,4.5186734,1.6226451,-0.007935383,189.69801,40.926937,0.3287088,0.28178105,0.11899922,0.09868425,inf,inf,inf,inf,1,1,1,1,12,18,2,2,5,1,1,1,0,0,0
1015850155,1015847627,989553489,43.781812599999995,-79.4664648,-1.0291295,-0.06771191,-39.616287,-0.033358477,0.0802805,-1.4530041,-0.36874154,-0.11318466,9.1991005,8.886335,-0.005967029,0.0119490735,-0.037355017,-1.307038,-0.636414,3.1464431,1.6308922,-0.007935383,189.69801,40.032017,0.33599672,0.28668153,0.12270151,0.10047131,inf,inf,inf,inf,1,1,1,1,12,18,2,2,5,1,1,1,0,0,0
1015949136,1015946814,989553489,43.781812599999995,-79.4664648,-1.065601,-0.07842162,-38.723785,-0.033358477,0.0802805,-1.4530041,-0.36120874,-0.12216834,9.258364,8.956978,-0.005967029,0.0119490735,-0.037355017,-1.5531646,-0.8638253,0.7009507,1.6378069,-0.007935383,189.69801,39.139515,0.34367177,0.2916902,0.12666614,0.10224731,inf,inf,inf,inf,1,1,1,1,12,18,2,2,5,1,1,1,0,0,0
1016048496,1016046001,989553489,43.781812599999995,-79.4664648,-1.0977718,-0.09174367,-37.796883,-0.033358477,0.0802805,-1.4530041,-0.33212385,-0.12860501,9.31581,9.052922,-0.005967029,0.0119490735,-0.037355017,1.250685,0.71020955,1.318273,1.6422185,-0.007935383,189.69801,38.212612,0.3357234,0.28723884,0.12411681,0.10052529,inf,inf,inf,inf,1,1,1,1,12,18,2,2,5,1,1,1,0,0,0
1016157474,1016154204,989553489,43.781812599999995,-79.4664648,-1.13031,-0.10651117,-36.79179,-0.033358477,0.0802805,-1.4530041,-0.30893904,-0.12407683,9.359633,9.122515,-0.005967029,0.0119490735,-0.037355017,1.7132246,0.19711663,0.8053062,1.6447498,-0.007935383,189.69801,37.20752,0.32877645,0.28253233,0.12187898,0.09881778,inf,inf,inf,inf,1,1,1,1,12,18,2,2,5,1,1,1,0,0,0
1016255050,1016253392,989553489,43.781812599999995,-79.4664648,-1.1539779,-0.12096625,-35.83535,-0.033358477,0.0802805,-1.4530041,-0.28127262,-0.12387138,9.440833,9.251806,-0.005967029,0.0119490735,-0.037355017,0.78323483,0.093969405,-0.6387858,1.6433856,-0.007935383,189.69801,36.25108,0.33620015,0.28747842,0.12617344,0.10061544,inf,inf,inf,inf,1,1,1,1,12,18,2,2,5,1,1,1,0,0,0
1016355975,1016352578,989553489,43.781812599999995,-79.4664648,-1.1763759,-0.13532642,-34.886494,-0.033358477,0.0802805,-1.4530041,-0.25480384,-0.13246581,9.47299,9.313475,-0.005967029,0.0119490735,-0.037355017,0.6643175,-0.24467067,1.086106,1.6387643,-0.007935383,189.69801,35.302223,0.32856715,0.28216466,0.12337799,0.098727256,inf,inf,inf,inf,1,1,1,1,12,18,2,2,5,1,1,1,0,0,0
1016453558,1016451765,989553489,43.781812599999995,-79.4664648,-1.1951756,-0.15191498,-33.908836,-0.033358477,0.0802805,-1.4530041,-0.2293198,-0.13272394,9.484913,9.378068,-0.005967029,0.0119490735,-0.037355017,-0.04289197,0.31644723,0.071460426,1.6333629,-0.007935383,189.69801,34.324566,0.33604407,0.2870962,0.12789246,0.10052337,inf,inf,inf,inf,1,1,1,1,12,18,2,2,5,1,1,1,0,0,0
1016554196,1016550952,989553489,43.781812599999995,-79.4664648,-1.2126628,-0.16799939,-32.945007,-0.033358477,0.0802805,-1.4530041,-0.20944461,-0.13669576,9.502937,9.428054,-0.005967029,0.0119490735,-0.037355017,0.266257,-0.19859523,-1.5736375,1.6261463,-0.007935383,189.69801,33.360737,0.32839528,0.28180876,0.12523057,0.098645896,inf,inf,inf,inf,1,1,1,1,12,18,2,2,5,1,1,1,0,0,0
1016651993,1016650141,989553489,43.781812599999995,-79.4664648,-1.2232227,-0.18607804,-31.94525,-0.033358477,0.0802805,-1.4530041,-0.18890841,-0.13790299,9.538445,9.5229435,-0.005967029,0.0119490735,-0.037355017,0.5828107,0.3228746,-0.3305104,1.620359,-0.007935383,189.69801,32.360977,0.3359367,0.28673005,0.12987651,0.10044179,inf,inf,inf,inf,1,1,1,1,12,18,2,2,5,1,1,1,0,0,0
1016753353,1016749326,989553489,43.781812599999995,-79.4664648,-1.2337306,-0.20394912,-30.962936,-0.033358477,0.0802805,-1.4530041,-0.1829421,-0.15261024,9.517313,9.537935,-0.005967029,0.0119490735,-0.037355017,-1.1074289,-0.66743135,1.0345514,1.6141008,-0.007935383,189.69801,31.378666,0.3282895,0.28146708,0.1270309,0.0985741,inf,inf,inf,inf,1,1,1,1,12,18,2,2,5,1,1,1,0,0,0
1016850943,1016848516,989553489,43.781812599999995,-79.4664648,-1.2386919,-0.22429062,-29.951794,-0.033358477,0.0802805,-1.4530041,-0.16644563,-0.15209563,9.540427,9.622059,-0.005967029,0.0119490735,-0.037355017,0.61645854,-0.2879963,2.8861377,1.6022319,-0.007935383,189.69801,30.367523,0.33589548,0.2863745,0.13198747,0.10036776,inf,inf,inf,inf,1,1,1,1,12,18,2,2,5,1,1,1,0,0,0
1016952141,1016947700,989553489,43.781812599999995,-79.4664648,-1.246058,-0.24357949,-28.962252,-0.033358477,0.0802805,-1.4530041,-0.16798575,-0.14678271,9.509417,9.624405,-0.005967029,0.0119490735,-0.037355017,-0.6739723,-0.7139504,-0.46323505,1.5885177,-0.007935383,189.69801,29.377981,0.32822028,0.28112897,0.12901823,0.098506875,inf,inf,inf,inf,1,1,1,1,12,18,2,2,5,1,1,1,0,0,0
1017049410,1017046762,989553489,43.781812599999995,-79.4664648,-1.25158,-0.26447386,-27.943224,-0.033358477,0.0802805,-1.4530041,-0.16721836,-0.13936375,9.5583315,9.73176,-0.005967029,0.0119490735,-0.037355017,-0.09899379,0.51875126,0.34427103,1.5716053,-0.007935383,189.69801,28.358953,0.3358952,0.28697854,0.13397066,0.10045868,inf,inf,inf,inf,1,1,1,1,12,18,2,2,5,1,1,1,0,0,0
1017159134,1017155090,989553489,43.781812599999995,-79.4664648,-1.2607445,-0.28509435,-26.852896,-0.033358477,0.0802805,-1.4530041,-0.17247298,-0.12982509,9.568855,9.773074,-0.005967029,0.0119490735,-0.037355017,2.2758052,1.0906278,-1.3070117,1.5534227,-0.007935383,189.69801,27.268625,0.32882264,0.28136215,0.13109191,0.098612234,inf,inf,inf,inf,1,1,1,1,12,18,2,2,5,1,1,1,0,0,0
1017246600,1017245260,989553489,43.781812599999995,-79.4664648,-1.2629231,-0.30468583,-25.919884,-0.033358477,0.0802805,-1.4530041,-0.16890267,-0.13183185,9.555087,9.8063965,-0.005967029,0.0119490735,-0.037355017,2.0144525,-0.5441485,0.2045717,1.5404621,-0.007935383,189.69801,26.335613,0.33587098,0.28659514,0.13559043,0.100372754,inf,inf,inf,inf,1,1,1,1,12,18,2,2,5,1,1,1,0,0,0
1017356632,1017353464,989553489,43.781812599999995,-79.4664648,-1.2680213,-0.32592672,-24.832588,-0.033358477,0.0802805,-1.4530041,-0.15994625,-0.12187901,9.514134,9.788305,-0.005967029,0.0119490735,-0.037355017,2.6831942,1.4415096,-3.7188141,1.5299016,-0.007935383,189.69801,25.248318,0.32875016,0.28189376,0.13283421,0.09868345,inf,inf,inf,inf,1,1,1,1,12,18,2,2,5,1,1,1,0,0,0
1017454227,1017452650,989553489,43.781812599999995,-79.4664648,-1.2684666,-0.3508313,-23.814318,-0.033358477,0.0802805,-1.4530041,-0.16121015,-0.14399849,9.465486,9.78313,-0.005967029,0.0119490735,-0.037355017,-1.540089,-0.44248575,-0.82262474,1.5233557,-0.007935383,189.69801,24.230047,0.3365866,0.28682923,0.1379969,0.100485876,inf,inf,inf,inf,1,1,1,1,12,18,2,2,5,1,1,1,0,0,0
1017555271,1017551837,989553489,43.781812599999995,-79.4664648,-1.2722439,-0.37392136,-22.828402,-0.033358477,0.0802805,-1.4530041,-0.15892434,-0.14070943,9.408454,9.737832,-0.005967029,0.0119490735,-0.037355017,0.5874418,0.11970066,0.23821294,1.516686,-0.007935383,189.69801,23.244131,0.32870865,0.28151187,0.13453174,0.0986077,inf,inf,inf,inf,1,1,1,1,12,18,2,2,5,1,1,1,0,0,0
1017652593,1017651024,989553489,43.781812599999995,-79.4664648,-1.2721766,-0.40080103,-21.821053,-0.033358477,0.0802805,-1.4530041,-0.1710117,-0.15040877,9.371069,9.7366085,-0.005967029,0.0119490735,-0.037355017,-5.3565826,-0.3177155,-0.42833674,1.5094879,-0.007935383,189.69801,22.236782,0.33660984,0.2864372,0.13986161,0.100408636,inf,inf,inf,inf,1,1,1,1,12,18,2,2,5,1,1,1,0,0,0
1017751727,1017750213,989553489,43.781812599999995,-79.4664648,-1.2763778,-0.42435405,-20.849628,-0.033358477,0.0802805,-1.4530041,-0.16435064,-0.14406434,9.369556,9.736033,-0.005967029,0.0119490735,-0.037355017,-3.5531046,-1.0188792,3.2308578,1.5079937,-0.007935383,189.69801,21.265358,0.34503356,0.29146326,0.14530812,0.102192774,inf,inf,inf,inf,1,1,1,1,12,18,2,2,5,1,1,1,0,0,0
1017851144,1017849397,989553489,43.781812599999995,-79.4664648,-1.2782377,-0.4526192,-19.846895,-0.033358477,0.0802805,-1.4530041,-0.13974203,-0.15156218,9.331492,9.730837,-0.005967029,0.0119490735,-0.037355017,3.7716053,0.5551719,-1.8878256,1.5111922,-0.007935383,189.69801,20.262625,0.33657846,0.28601265,0.14113137,0.10031473,inf,inf,inf,inf,1,1,1,1,12,18,2,2,5,1,1,1,0,0,0
1017950435,1017948583,989553489,43.781812599999995,-79.4664648,-1.2822268,-0.47851452,-18.872545,-0.033358477,0.0802805,-1.4530041,-0.11993736,-0.15707503,9.3309555,9.729486,-0.005967029,0.0119490735,-0.037355017,0.46031702,0.85307705,-3.8868275,1.5175108,-0.007935383,189.69801,19.288275,0.34506074,0.2910271,0.14655116,0.102102965,inf,inf,inf,inf,1,1,1,1,12,18,2,2,5,1,1,1,0,0,0
1018049633,1018047772,989553489,43.781812599999995,-79.4664648,-1.2784601,-0.50845516,-17.895472,-0.033358477,0.0802805,-1.4530041,0.01199223,-0.11566825,8.796046,9.22612,-0.005967029,0.0119490735,-0.037355017,0.9551294,1.28986,-3.0201893,1.5234047,-0.007935383,189.69801,18.311201,0.3365524,0.2865347,0.14241627,0.10039455,inf,inf,inf,inf,1,1,1,1,12,18,2,2,5,1,1,1,0,0,0
1018148540,1018146957,989553489,43.781812599999995,-79.4664648,-1.2627441,-0.52636755,-17.007269,-0.033358477,0.0802805,-1.4530041,0.14070708,-0.021988757,8.233682,8.65713,-0.005967029,0.0119490735,-0.037355017,0.9586696,-0.19810279,-3.5645654,1.5108194,-0.007935383,189.69801,17.422998,0.34512678,0.2915894,0.15042153,0.102212936,inf,inf,inf,inf,1,1,1,1,12,18,2,2,5,1,1,1,0,0,0
1018248638,1018246143,989553489,43.781812599999995,-79.4664648,-1.2409492,-0.5422436,-16.139458,-0.033358477,0.0802805,-1.4530041,0.15174985,0.052139316,7.710157,8.162913,-0.005967029,0.0119490735,-0.037355017,-1.3557276,0.48930547,-4.651412,1.497211,-0.007935383,189.69801,16.555187,0.33656716,0.28610975,0.1484788,0.10036328,inf,inf,inf,inf,1,1,1,1,12,18,2,2,5,1,1,1,0,0,0
1018346998,1018345331,989553489,43.781812599999995,-79.4664648,-1.223496,-0.54723924,-15.362248,-0.033358477,0.0802805,-1.4530041,0.119456455,0.11043997,7.25537,7.6928368,-0.005967029,0.0119490735,-0.037355017,-0.5702425,-0.02441782,-6.7287016,1.4886792,-0.007935383,189.69801,15.777978,0.34534574,0.29115015,0.15671137,0.10216881,inf,inf,inf,inf,1,1,1,1,12,18,2,2,5,1,1,1,0,0,0
1018455176,1018453533,989553489,43.781812599999995,-79.4664648,-1.2035228,-0.5630927,-14.512817,-0.033358477,0.0802805,-1.4530041,0.089204215,0.06677682,6.7140713,7.1893625,-0.005967029,0.0119490735,-0.037355017,-2.6949248,-0.93299526,-7.10278,1.4742657,-0.007935383,189.69801,14.928547,0.33740297,0.2863171,0.15374027,0.10049658,inf,inf,inf,inf,1,1,1,1,12,18,2,2,5,1,1,1,0,0,0
1018556068,1018552719,989553489,43.781812599999995,-79.4664648,-1.187719,-0.5798762,-13.830561,-0.033358477,0.0802805,-1.4530041,0.10048217,-0.0313961,6.0367384,6.5080357,-0.005967029,0.0119490735,-0.037355017,1.351996,-1.4378537,-9.807624,1.4712039,-0.007935383,189.69801,14.24629,0.3290513,0.28097883,0.15009047,0.098609425,inf,inf,inf,inf,1,1,1,1,12,18,2,2,5,1,1,1,0,0,0
1018653647,1018651905,989553489,43.781812599999995,-79.4664648,-1.1634141,-0.60612786,-13.1713705,-0.033358477,0.0802805,-1.4530041,0.07711135,-0.018159993,5.4269,5.934619,-0.005967029,0.0119490735,-0.037355017,-0.5628911,0.19038501,-5.5043573,1.4738964,-0.007935383,189.69801,13.5871,0.33752093,0.28590798,0.15879725,0.10040604,inf,inf,inf,inf,1,1,1,1,12,18,2,2,5,1,1,1,0,0,0
1018755399,1018751095,989553489,43.781812599999995,-79.4664648,-1.1450188,-0.62155586,-12.605715,-0.033358477,0.0802805,-1.4530041,0.05191924,0.050065957,4.8133793,5.3229823,-0.005967029,0.0119490735,-0.037355017,-0.49785012,1.3584294,-3.8948758,1.4790615,-0.007935383,189.69801,13.021444,0.32906175,0.2805883,0.15438129,0.09852568,inf,inf,inf,inf,1,1,1,1,12,18,2,2,5,1,1,1,0,0,0
1018851931,1018850279,989553489,43.781812599999995,-79.4664648,-1.1265155,-0.6349618,-12.042698,-0.033358477,0.0802805,-1.4530041,0.029934727,0.091203324,4.337517,4.8968086,-0.005967029,0.0119490735,-0.037355017,-0.6024678,1.1833078,-7.451599,1.4898071,-0.007935383,189.69801,12.458427,0.33767822,0.28550866,0.16284181,0.100328706,inf,inf,inf,inf,1,1,1,1,12,18,2,2,5,1,1,1,0,0,0
1018951224,1018949466,989553489,43.781812599999995,-79.4664648,-1.1126885,-0.6385816,-11.563387,-0.033358477,0.0802805,-1.4530041,0.02845051,0.12625782,3.8805416,4.447632,-0.005967029,0.0119490735,-0.037355017,0.7339465,0.99754786,-5.787232,1.4952708,-0.007935383,189.69801,11.979116,0.34704462,0.29053065,0.17087843,0.10211671,inf,inf,inf,inf,1,1,1,1,12,18,2,2,5,1,1,1,0,0,0
1019051149,1019048651,989553489,43.781812599999995,-79.4664648,-1.0951458,-0.6524952,-11.069168,-0.033358477,0.0802805,-1.4530041,0.019943776,0.13172719,3.4567606,4.0883417,-0.005967029,0.0119490735,-0.037355017,-0.47211635,0.8381968,-5.8233905,1.4970406,-0.007935383,189.69801,11.484898,0.33776882,0.2850888,0.16450419,0.10024543,inf,inf,inf,inf,1,1,1,1,12,18,2,2,5,1,1,1,0,0,0
1019149687,1019147844,989553489,43.781812599999995,-79.4664648,-1.0828062,-0.6589651,-10.656455,-0.033358477,0.0802805,-1.4530041,-0.002679026,0.14010455,3.0219548,3.6728978,-0.005967029,0.0119490735,-0.037355017,-1.458473,-0.18827082,-3.690206,1.5001994,-0.007935383,189.69801,11.072185,0.34721607,0.2910982,0.1720254,0.10220513,inf,inf,inf,inf,1,1,1,1,12,18,2,2,5,1,1,1,0,0,0
1019248811,1019247023,989553489,43.781812599999995,-79.4664648,-1.0693821,-0.66976815,-10.24077,-0.033358477,0.0802805,-1.4530041,0.004375699,0.15625517,2.6158497,3.3284273,-0.005967029,0.0119490735,-0.037355017,0.19370435,0.56745386,-4.096404,1.5018997,-0.007935383,189.69801,10.6565,0.33786997,0.2856256,0.16517942,0.100323945,inf,inf,inf,inf,1,1,1,1,12,18,2,2,5,1,1,1,0,0,0
1019348060,1019346211,989553489,43.781812599999995,-79.4664648,-1.0600165,-0.6718353,-9.906845,-0.033358477,0.0802805,-1.4530041,-0.0143734785,0.17607616,2.1998324,2.9267566,-0.005967029,0.0119490735,-0.037355017,-0.66105527,0.04710231,-4.460032,1.5047302,-0.007935383,189.69801,10.322575,0.34737185,0.29067442,0.17241883,0.10212501,inf,inf,inf,inf,1,1,1,1,12,18,2,2,5,1,1,1,0,0,0
1019456247,1019454415,989553489,43.781812599999995,-79.4664648,-1.0576612,-0.6781106,-9.550532,-0.033358477,0.0802805,-1.4530041,-0.038944352,0.1755202,1.7597377,2.5383983,-0.005967029,0.0119490735,-0.037355017,-0.50859123,0.44959933,-4.465994,1.5115508,-0.007935383,189.69801,9.966262,0.33880833,0.28585103,0.16584925,0.10044792,inf,inf,inf,inf,1,1,1,1,12,18,2,2,5,1,1,1,0,0,0
1019546463,1019544583,989553489,43.781812599999995,-79.4664648,-1.0593001,-0.6788252,-9.324915,-0.033358477,0.0802805,-1.4530041,-0.06596064,0.1505442,1.3963968,2.1793673,-0.005967029,0.0119490735,-0.037355017,-0.0017409476,-0.2521019,-4.6398263,1.5226284,-0.007935383,189.69801,9.740644,0.34750652,0.29026523,0.17223048,0.102050744,inf,inf,inf,inf,1,1,1,1,12,18,2,2,5,1,1,1,0,0,0
1019654229,1019652784,989553489,43.781812599999995,-79.4664648,-1.0711923,-0.6845058,-9.059701,-0.033358477,0.0802805,-1.4530041,-0.103141226,0.1281382,1.0741827,1.8932787,-0.005967029,0.0119490735,-0.037355017,-1.6628546,0.49568504,-4.9301934,1.5399516,-0.007935383,189.69801,9.4754305,0.33888698,0.28545526,0.16523458,0.10036766,inf,inf,inf,inf,1,1,1,1,12,18,2,2,5,1,1,1,0,0,0
1019755365,1019751971,989553489,43.781812599999995,-79.4664648,-1.0849893,-0.6861294,-8.874062,-0.033358477,0.0802805,-1.4530041,-0.12635644,0.10392337,0.91510165,1.7318946,-0.005967029,0.0119490735,-0.037355017,-2.0340002,1.209585,-2.7509036,1.5554781,-0.007935383,189.69801,9.289791,0.3300872,0.28014255,0.15752633,0.09849189,inf,inf,inf,inf,1,1,1,1,12,18,2,2,5,1,1,1,0,0,0
1019852783,1019851159,989553489,43.781812599999995,-79.4664648,-1.1045011,-0.68263644,-8.686614,-0.033358477,0.0802805,-1.4530041,-0.13314001,0.095550366,0.8620504,1.689434,-0.005967029,0.0119490735,-0.037355017,-0.42165825,-0.8562295,1.7396615,1.5688028,-0.007935383,189.69801,9.102344,0.3389513,0.2850721,0.16275649,0.10029216,inf,inf,inf,inf,1,1,1,1,12,18,2,2,5,1,1,1,0,0,0
1019953720,1019950342,989553489,43.781812599999995,-79.4664648,-1.1245698,-0.6749385,-8.533004,-0.033358477,0.0802805,-1.4530041,-0.1338172,0.1323255,0.7828189,1.5928799,-0.005967029,0.0119490735,-0.037355017,2.0854502,-1.8328705,2.944022,1.5790652,-0.007935383,189.69801,8.948733,0.33020154,0.27978215,0.15445475,0.09842578,inf,inf,inf,inf,1,1,1,1,12,18,2,2,5,1,1,1,0,0,0
1020051761,1020049528,989553489,43.781812599999995,-79.4664648,-1.1519761,-0.6616766,-8.384323,-0.033358477,0.0802805,-1.4530041,-0.15182307,0.17283171,0.6897884,1.4877381,-0.005967029,0.0119490735,-0.037355017,3.9963908,-1.4387165,-0.43613234,1.5816982,-0.007935383,189.69801,8.800053,0.33900076,0.28470346,0.15916094,0.100235544,inf,inf,inf,inf,1,1,1,1,12,18,2,2,5,1,1,1,0,0,0
1020150377,1020148728,989553489,43.781812599999995,-79.4664648,-1.1785543,-0.64481163,-8.264944,-0.033358477,0.0802805,-1.4530041,-0.17585555,0.17905976,0.66206783,1.4257319,-0.005967029,0.0119490735,-0.037355017,3.152743,-3.1676846,1.9544036,1.5782088,-0.007935383,189.69801,8.680674,0.34843156,0.2907205,0.16396165,0.10220243,inf,inf,inf,inf,1,1,1,1,12,18,2,2,5,1,1,1,0,0,0
1020250463,1020247902,989553489,43.781812599999995,-79.4664648,-1.212462,-0.6261537,-8.152046,-0.033358477,0.0802805,-1.4530041,-0.21126668,0.17370546,0.61302084,1.3444332,-0.005967029,0.0119490735,-0.037355017,-0.1476516,1.5256262,-4.725576,1.5759315,-0.007935383,189.69801,8.567776,0.33888945,0.28520802,0.15570517,0.10029579,inf,inf,inf,inf,1,1,1,1,12,18,2,2,5,1,1,1,0,0,0
1020348855,1020347086,989553489,43.781812599999995,-79.4664648,-1.2459072,-0.60865813,-8.058206,-0.033358477,0.0802805,-1.4530041,-0.23957531,0.15090635,0.6043588,1.29184,-0.005967029,0.0119490735,-0.037355017,-2.1383734,0.6799179,-1.2626764,1.5770338,-0.007935383,189.69801,8.473935,0.34819975,0.2902707,0.16016513,0.10209444,inf,inf,inf,inf,1,1,1,1,12,18,2,2,5,1,1,1,0,0,0
1020447862,1020446272,989553489,43.781812599999995,-79.4664648,-1.2839011,-0.5947813,-7.9699965,-0.033358477,0.0802805,-1.4530041,-0.25083348,0.13852717,0.582809,1.2280407,-0.005967029,0.0119490735,-0.037355017,-1.9412816,1.0804993,-0.73722506,1.5774114,-0.007935383,189.69801,8.385726,0.3388135,0.28481102,0.15257308,0.10021229,inf,inf,inf,inf,1,1,1,1,12,18,2,2,5,1,1,1,0,0,0
1020547736,1020545458,989553489,43.781812599999995,-79.4664648,-1.3193824,-0.58148074,-7.896535,-0.033358477,0.0802805,-1.4530041,-0.25866014,0.122152545,0.54926735,1.1456689,-0.005967029,0.0119490735,-0.037355017,-1.5639766,0.4996741,-2.2795653,1.5747964,-0.007935383,189.69801,8.312264,0.34801266,0.28985974,0.15685448,0.102007814,inf,inf,inf,inf,1,1,1,1,12,18,2,2,5,1,1,1,0,0,0
1020655280,1020653660,989553489,43.781812599999995,-79.4664648,-1.3665547,-0.56102985,-7.823158,-0.033358477,0.0802805,-1.4530041,-0.2650965,0.115808114,0.5346185,1.0792056,-0.005967029,0.0119490735,-0.037355017,-0.0043125004,1.9006569,-1.418804,1.5736829,-0.007935383,189.69801,8.238887,0.33950308,0.28504354,0.14997892,0.10032704,inf,inf,inf,inf,1,1,1,1,12,18,2,2,5,1,1,1,0,0,0
1020755978,1020752846,989553489,43.781812599999995,-79.4664648,-1.4073147,-0.5432101,-7.76676,-0.033358477,0.0802805,-1.4530041,-0.27008346,0.11829274,0.48563084,0.98133856,-0.005967029,0.0119490735,-0.037355017,0.7909074,0.1434088,-0.6397198,1.5749197,-0.007935383,189.69801,8.182489,0.33084399,0.2797207,0.14342557,0.09845214,inf,inf,inf,inf,1,1,1,1,12,18,2,2,5,1,1,1,0,0,0
1020853604,1020852031,989553489,43.781812599999995,-79.4664648,-1.4541038,-0.5204705,-7.71801,-0.033358477,0.0802805,-1.4530041,-0.28526634,0.1245967,0.4410153,0.8898353,-0.005967029,0.0119490735,-0.037355017,0.12612501,-1.6824561,1.3257188,1.574841,-0.007935383,189.69801,8.133739,0.3393655,0.2846593,0.14756472,0.10025702,inf,inf,inf,inf,1,1,1,1,12,18,2,2,5,1,1,1,0,0,0
1020954409,1020951218,989553489,43.781812599999995,-79.4664648,-1.4973325,-0.4995635,-7.6773424,-0.033358477,0.0802805,-1.4530041,-0.29665887,0.1316356,0.4044859,0.807717,-0.005967029,0.0119490735,-0.037355017,-1.3068964,0.61324376,-2.0706599,1.5739629,-0.007935383,189.69801,8.093072,0.33074847,0.27935308,0.14137352,0.098387696,inf,inf,inf,inf,1,1,1,1,12,18,2,2,5,1,1,1,0,0,0
1021052142,1021050403,989553489,43.781812599999995,-79.4664648,-1.5447522,-0.48065934,-7.64282,-0.033358477,0.0802805,-1.4530041,-0.29523593,0.13135289,0.39014736,0.74907434,-0.005967029,0.0119490735,-0.037355017,-1.6486723,2.7214816,-2.9721253,1.572993,-0.007935383,189.69801,8.058549,0.33919856,0.2842834,0.14542884,0.10019314,inf,inf,inf,inf,1,1,1,1,12,18,2,2,5,1,1,1,0,0,0
1021154202,1021149588,989553489,43.781812599999995,-79.4664648,-1.5875658,-0.4623284,-7.6113987,-0.033358477,0.0802805,-1.4530041,-0.28243583,0.12999147,0.39192334,0.70972925,-0.005967029,0.0119490735,-0.037355017,-0.7693057,0.9523423,-1.6028361,1.5706102,-0.007935383,189.69801,8.027128,0.3306457,0.27987957,0.13949953,0.09847678,inf,inf,inf,inf,1,1,1,1,12,18,2,2,5,1,1,1,0,0,0
1021250656,1021248774,989553489,43.781812599999995,-79.4664648,-1.6321055,-0.4415864,-7.585456,-0.033358477,0.0802805,-1.4530041,-0.26271322,0.13137403,0.36417723,0.64226174,-0.005967029,0.0119490735,-0.037355017,1.4651773,-1.8982652,3.901299,1.5681297,-0.007935383,189.69801,8.001185,0.33902287,0.28484586,0.14350228,0.10028919,inf,inf,inf,inf,1,1,1,1,12,18,2,2,5,1,1,1,0,0,0
1021350511,1021347959,989553489,43.781812599999995,-79.4664648,-1.6707435,-0.42261168,-7.5617795,-0.033358477,0.0802805,-1.4530041,-0.2609345,0.13082667,0.32148093,0.5643324,-0.005967029,0.0119490735,-0.037355017,0.8347856,-0.7944197,-2.5217345,1.5649829,-0.007935383,189.69801,7.9775085,0.3478955,0.2899252,0.1475044,0.102091864,inf,inf,inf,inf,1,1,1,1,12,18,2,2,5,1,1,1,0,0,0
1021449059,1021447163,989553489,43.781812599999995,-79.4664648,-1.7117901,-0.4030126,-7.5436645,-0.033358477,0.0802805,-1.4530041,-0.24971299,0.123212166,0.3245469,0.5321311,-0.005967029,0.0119490735,-0.037355017,-1.5381215,0.65034014,-1.6889054,1.5635165,-0.007935383,189.69801,7.9593935,0.33875355,0.28444895,0.14170766,0.10021394,inf,inf,inf,inf,1,1,1,1,12,18,2,2,5,1,1,1,0,0,0
1021556988,1021555347,989553489,43.781812599999995,-79.4664648,-1.7509205,-0.38398054,-7.5259285,-0.033358477,0.0802805,-1.4530041,-0.23176023,0.12406793,0.28993735,0.4637098,-0.005967029,0.0119490735,-0.037355017,-1.6288667,1.7004772,-1.979465,1.5635458,-0.007935383,189.69801,7.9416575,0.33103994,0.27973977,0.13666867,0.09854178,inf,inf,inf,inf,1,1,1,1,12,18,2,2,5,1,1,1,0,0,0
1021647227,1021645516,989553489,43.781812599999995,-79.4664648,-1.7830576,-0.36947247,-7.516223,-0.033358477,0.0802805,-1.4530041,-0.20057705,0.11451622,0.28930035,0.4349231,-0.005967029,0.0119490735,-0.037355017,1.4169546,-1.644101,4.1356397,1.5637343,-0.007935383,189.69801,7.931952,0.33855143,0.28408325,0.14032535,0.10016378,inf,inf,inf,inf,1,1,1,1,12,18,2,2,5,1,1,1,0,0,0
1021757043,1021753718,989553489,43.781812599999995,-79.4664648,-1.8161653,-0.35306063,-7.5033283,-0.033358477,0.0802805,-1.4530041,-0.19078813,0.11486111,0.27769214,0.39498743,-0.005967029,0.0119490735,-0.037355017,-1.2365048,0.12297083,0.123534866,1.560456,-0.007935383,189.69801,7.9190574,0.3308339,0.27935696,0.1354521,0.098479725,inf,inf,inf,inf,1,1,1,1,12,18,2,2,5,1,1,1,0,0,0
1021854430,1021852903,989553489,43.781812599999995,-79.4664648,-1.8480264,-0.3399461,-7.498506,-0.033358477,0.0802805,-1.4530041,-0.17687663,0.10722097,0.23334967,0.32292405,-0.005967029,0.0119490735,-0.037355017,0.9648683,-0.88007295,-1.3376477,1.5568737,-0.007935383,189.69801,7.914235,0.33905277,0.28430903,0.13937546,0.10029212,inf,inf,inf,inf,1,1,1,1,12,18,2,2,5,1,1,1,0,0,0
1021955081,1021952088,989553489,43.781812599999995,-79.4664648,-1.8750895,-0.32934108,-7.493747,-0.033358477,0.0802805,-1.4530041,-0.16144128,0.06124886,0.22427183,0.29171163,-0.005967029,0.0119490735,-0.037355017,-0.6164581,-0.47361824,-0.26590034,1.5521741,-0.007935383,189.69801,7.9094763,0.33060622,0.27897933,0.13436969,0.09841906,inf,inf,inf,inf,1,1,1,1,12,18,2,2,5,1,1,1,0,0,0
1022053584,1022051273,989553489,43.781812599999995,-79.4664648,-1.9026895,-0.32138708,-7.494393,-0.033358477,0.0802805,-1.4530041,-0.15694056,0.017524233,0.20500886,0.24855389,-0.005967029,0.0119490735,-0.037355017,0.37648535,-1.1592528,1.2182842,1.5522702,-0.007935383,189.69801,7.910122,0.3387678,0.2839229,0.13834895,0.100227065,inf,inf,inf,inf,1,1,1,1,12,18,2,2,5,1,1,1,0,0,0
1022153320,1022150459,989553489,43.781812599999995,-79.4664648,-1.9275217,-0.3190762,-7.494382,-0.033358477,0.0802805,-1.4530041,-0.15550266,-0.029520962,0.15480907,0.1802386,-0.005967029,0.0119490735,-0.037355017,2.4232755,-1.5280347,-2.6260357,1.5533476,-0.007935383,189.69801,7.910111,0.330382,0.2794895,0.1334817,0.09849908,inf,inf,inf,inf,1,1,1,1,12,18,2,2,5,1,1,1,0,0,0
1022252618,1022249644,989553489,43.781812599999995,-79.4664648,-1.956309,-0.32230082,-7.501683,-0.033358477,0.0802805,-1.4530041,-0.16295385,-0.07419599,0.1201723,0.12584373,-0.005967029,0.0119490735,-0.037355017,0.4281177,-0.998656,-0.8557126,1.5567002,-0.007935383,189.69801,7.9174123,0.3384911,0.28447264,0.13747653,0.10031453,inf,inf,inf,inf,1,1,1,1,12,18,2,2,5,1,1,1,0,0,0
1022352077,1022348829,989553489,43.781812599999995,-79.4664648,-1.9821979,-0.32945758,-7.507257,-0.033358477,0.0802805,-1.4530041,-0.15284286,-0.11284581,0.124191135,0.115781635,-0.005967029,0.0119490735,-0.037355017,1.5484543,-2.3884892,1.4189736,1.5643882,-0.007935383,189.69801,7.922986,0.33016008,0.279139,0.1328388,0.098438494,inf,inf,inf,inf,1,1,1,1,12,18,2,2,5,1,1,1,0,0,0
1022449791,1022448016,989553489,43.781812599999995,-79.4664648,-2.011116,-0.33699524,-7.5171695,-0.033358477,0.0802805,-1.4530041,-0.15371431,-0.10687129,0.10098811,0.077295646,-0.005967029,0.0119490735,-0.037355017,2.6782417,0.6210115,-1.8012791,1.5742538,-0.007935383,189.69801,7.9328985,0.3382234,0.28411,0.13677569,0.100249186,inf,inf,inf,inf,1,1,1,1,12,18,2,2,5,1,1,1,0,0,0
1022550510,1022547202,989553489,43.781812599999995,-79.4664648,-2.0359478,-0.34550685,-7.5256624,-0.033358477,0.0802805,-1.4530041,-0.15644014,-0.12027276,0.077349566,0.043016784,-0.005967029,0.0119490735,-0.037355017,-0.81422406,0.03427339,0.19359449,1.5791316,-0.007935383,189.69801,7.9413915,0.32992646,0.27879086,0.13218865,0.09838124,inf,inf,inf,inf,1,1,1,1,12,18,2,2,5,1,1,1,0,0,0
1022647970,1022646385,989553489,43.781812599999995,-79.4664648,-2.0579946,-0.35801315,-7.5419745,-0.033358477,0.0802805,-1.4530041,-0.14111438,-0.13799725,0.05806646,0.007999277,-0.005967029,0.0119490735,-0.037355017,-2.2144873,2.2859602,-3.4574788,1.580655,-0.007935383,189.69801,7.9577036,0.3379477,0.28375402,0.1362217,0.10019607,inf,inf,inf,inf,1,1,1,1,12,18,2,2,5,1,1,1,0,0,0
1022757751,1022754587,989553489,43.781812599999995,-79.4664648,-2.0780585,-0.37460095,-7.5549483,-0.033358477,0.0802805,-1.4530041,-0.1137908,-0.17747174,0.06008599,-0.00018442422,-0.005967029,0.0119490735,-0.037355017,1.0277821,-1.292891,-0.59790325,1.5810807,-0.007935383,189.69801,7.9706774,0.33035263,0.27901983,0.13203737,0.09849954,inf,inf,inf,inf,1,1,1,1,12,18,2,2,5,1,1,1,0,0,0
1022856545,1022853772,989553489,43.781812599999995,-79.4664648,-2.0991235,-0.39273775,-7.570467,-0.033358477,0.0802805,-1.4530041,-0.10746021,-0.20996904,0.064886965,-0.006245209,-0.005967029,0.0119490735,-0.037355017,1.0558518,0.34280035,-0.29750395,1.5821728,-0.007935383,189.69801,7.986196,0.33836833,0.28398892,0.13601798,0.100311026,inf,inf,inf,inf,1,1,1,1,12,18,2,2,5,1,1,1,0,0,0
1022954722,1022952957,989553489,43.781812599999995,-79.4664648,-2.1163187,-0.41360807,-7.5812373,-0.033358477,0.0802805,-1.4530041,-0.11251838,-0.22681564,0.051131293,-0.024967954,-0.005967029,0.0119490735,-0.037355017,-0.967593,1.4420279,0.45751795,1.5845978,-0.007935383,189.69801,7.9969664,0.34683144,0.28906575,0.13999973,0.10211114,inf,inf,inf,inf,1,1,1,1,12,18,2,2,5,1,1,1,0,0,0
1023053875,1023052142,989553489,43.781812599999995,-79.4664648,-2.1382718,-0.43880615,-7.5962505,-0.033358477,0.0802805,-1.4530041,-0.08742831,-0.25553575,0.18954253,0.098720506,-0.005967029,0.0119490735,-0.037355017,0.30971485,1.037902,0.6335142,1.5887465,-0.007935383,189.69801,8.01198,0.33799738,0.2835691,0.13547498,0.10021888,inf,inf,inf,inf,1,1,1,1,12,18,2,2,5,1,1,1,0,0,0
1023153183,1023151327,989553489,43.781812599999995,-79.4664648,-2.155814,-0.46509916,-7.5890603,-0.033358477,0.0802805,-1.4530041,-0.09124326,-0.2610317,0.37266758,0.2750577,-0.005967029,0.0119490735,-0.037355017,-1.2035501,0.6089805,0.7475439,1.5915042,-0.007935383,189.69801,8.004789,0.34640238,0.28863055,0.13900942,0.102015674,inf,inf,inf,inf,1,1,1,1,12,18,2,2,5,1,1,1,0,0,0
1023251957,1023250513,989553489,43.781812599999995,-79.4664648,-2.1727252,-0.49119028,-7.573132,-0.033358477,0.0802805,-1.4530041,-0.07651268,-0.25520298,0.5290356,0.41662645,-0.005967029,0.0119490735,-0.037355017,1.4758579,-2.7092626,3.2950253,1.5919113,-0.007935383,189.69801,7.988861,0.33761936,0.2840865,0.13397269,0.100289784,inf,inf,inf,inf,1,1,1,1,12,18,2,2,5,1,1,1,0,0,0
1023351335,1023349697,989553489,43.781812599999995,-79.4664648,-2.1860957,-0.51544577,-7.5382795,-0.033358477,0.0802805,-1.4530041,-0.06107774,-0.22380559,0.5920191,0.4733089,-0.005967029,0.0119490735,-0.037355017,2.9642105,1.0191255,-1.7102052,1.5922116,-0.007935383,189.69801,7.9540086,0.34593812,0.289188,0.13744809,0.10209209,inf,inf,inf,inf,1,1,1,1,12,18,2,2,5,1,1,1,0,0,0
1023450559,1023448882,989553489,43.781812599999995,-79.4664648,-2.199453,-0.5398836,-7.5148826,-0.033358477,0.0802805,-1.4530041,-0.048778154,-0.21844181,0.59037435,0.45205408,-0.005967029,0.0119490735,-0.037355017,3.3361006,-2.3928537,0.13442354,1.5931305,-0.007935383,189.69801,7.9306116,0.33725548,0.2836926,0.13303052,0.100204684,inf,inf,inf,inf,1,1,1,1,12,18,2,2,5,1,1,1,0,0,0
1023549944,1023548069,989553489,43.781812599999995,-79.4664648,-2.2095075,-0.5622245,-7.4846363,-0.033358477,0.0802805,-1.4530041,-0.044428896,-0.20351923,0.5625328,0.41587824,-0.005967029,0.0119490735,-0.037355017,0.19359381,-1.145212,1.7794905,1.5945193,-0.007935383,189.69801,7.9003654,0.3455244,0.28878382,0.13707048,0.1020066,inf,inf,inf,inf,1,1,1,1,12,18,2,2,5,1,1,1,0,0,0
1023649840,1023647254,989553489,43.781812599999995,-79.4664648,-2.221071,-0.5847939,-7.4644136,-0.033358477,0.0802805,-1.4530041,-0.021878293,-0.1936401,0.58277047,0.41932237,-0.005967029,0.0119490735,-0.037355017,1.116806,0.8829848,-0.53329176,1.5930765,-0.007935383,189.69801,7.8801427,0.33690405,0.28331056,0.13308813,0.10013041,inf,inf,inf,inf,1,1,1,1,12,18,2,2,5,1,1,1,0,0,0
1023748267,1023746439,989553489,43.781812599999995,-79.4664648,-2.2284555,-0.60545635,-7.427627,-0.033358477,0.0802805,-1.4530041,-0.008806154,-0.17881736,0.7164387,0.546751,-0.005967029,0.0119490735,-0.037355017,2.4552345,-1.3027889,2.4515457,1.59091,-0.007935383,189.69801,7.843356,0.34515044,0.2883838,0.13698688,0.10193762,inf,inf,inf,inf,1,1,1,1,12,18,2,2,5,1,1,1,0,0,0
1023856212,1023854639,989553489,43.781812599999995,-79.4664648,-2.2385619,-0.62592673,-7.3760295,-0.033358477,0.0802805,-1.4530041,-0.025512926,-0.17458692,0.99124455,0.80620563,-0.005967029,0.0119490735,-0.037355017,-5.5183187,-1.4742721,4.732969,1.5856507,-0.007935383,189.69801,7.7917585,0.337304,0.28355712,0.13278599,0.1002588,inf,inf,inf,inf,1,1,1,1,12,18,2,2,5,1,1,1,0,0,0
1023956814,1023953823,989553489,43.781812599999995,-79.4664648,-2.2458737,-0.64279294,-7.292797,-0.033358477,0.0802805,-1.4530041,-0.01169442,-0.15485187,1.3099022,1.1175613,-0.005967029,0.0119490735,-0.037355017,3.5399888,-0.04514354,1.8705527,1.5802888,-0.007935383,189.69801,7.708526,0.329211,0.27822965,0.12809838,0.098385535,inf,inf,inf,inf,1,1,1,1,12,18,2,2,5,1,1,1,0,0,0
1024054949,1024053008,989553489,43.781812599999995,-79.4664648,-2.255153,-0.6589813,-7.19004,-0.033358477,0.0802805,-1.4530041,-0.0285217,-0.15604489,1.6674316,1.4537026,-0.005967029,0.0119490735,-0.037355017,1.3102458,1.8094218,1.8865622,1.5733204,-0.007935383,189.69801,7.605769,0.33695891,0.28319186,0.1310236,0.100197606,inf,inf,inf,inf,1,1,1,1,12,18,2,2,5,1,1,1,0,0,0
1024155390,1024152193,989553489,43.781812599999995,-79.4664648,-2.2638857,-0.67520946,-7.043859,-0.033358477,0.0802805,-1.4530041,-0.04874408,-0.15007761,2.049923,1.8232849,-0.005967029,0.0119490735,-0.037355017,-1.0580525,1.852764,3.50452,1.5673556,-0.007935383,189.69801,7.459588,0.32894683,0.2778828,0.12631252,0.09832534,inf,inf,inf,inf,1,1,1,1,12,18,2,2,5,1,1,1,0,0,0
1024253173,1024251378,989553489,43.781812599999995,-79.4664648,-2.2749915,-0.6930519,-6.8820457,-0.033358477,0.0802805,-1.4530041,-0.040408097,-0.15613541,2.3539934,2.098389,-0.005967029,0.0119490735,-0.037355017,1.9820504,0.44399968,1.721622,1.5651183,-0.007935383,189.69801,7.297775,0.3366068,0.28376046,0.12912795,0.10028631,inf,inf,inf,inf,1,1,1,1,12,18,2,2,5,1,1,1,0,0,0
1024354597,1024350563,989553489,43.781812599999995,-79.4664648,-2.2834387,-0.7105572,-6.6780286,-0.033358477,0.0802805,-1.4530041,-0.028004821,-0.14782126,2.6859488,2.4144077,-0.005967029,0.0119490735,-0.037355017,2.356751,3.1809938,-0.5031819,1.5640169,-0.007935383,189.69801,7.0937576,0.32866302,0.27841395,0.124834366,0.09841074,inf,inf,inf,inf,1,1,1,1,12,18,2,2,5,1,1,1,0,0,0
1024452127,1024449750,989553489,43.781812599999995,-79.4664648,-2.2895498,-0.72802895,-6.4642115,-0.033358477,0.0802805,-1.4530041,0.0021081585,-0.13058919,2.976938,2.6708856,-0.005967029,0.0119490735,-0.037355017,-0.66726,3.1768453,3.1861098,1.5621524,-0.007935383,189.69801,6.8799405,0.33625033,0.28340688,0.1277935,0.10023136,inf,inf,inf,inf,1,1,1,1,12,18,2,2,5,1,1,1,0,0,0
1024550556,1024548933,989553489,43.781812599999995,-79.4664648,-2.2901604,-0.74209934,-6.212965,-0.033358477,0.0802805,-1.4530041,0.03212681,-0.10698838,3.186946,2.8607442,-0.005967029,0.0119490735,-0.037355017,0.20908466,0.91031545,1.3496355,1.554645,-0.007935383,189.69801,6.628694,0.34420803,0.2885099,0.13095377,0.1020459,inf,inf,inf,inf,1,1,1,1,12,18,2,2,5,1,1,1,0,0,0
1024651022,1024648118,989553489,43.781812599999995,-79.4664648,-2.2910388,-0.750371,-5.970115,-0.033358477,0.0802805,-1.4530041,0.05467073,-0.077538826,3.341509,2.9742227,-0.005967029,0.0119490735,-0.037355017,0.39478233,-0.2528205,2.33998,1.5480766,-0.007935383,189.69801,6.385844,0.3358321,0.28302196,0.12718718,0.100165285,inf,inf,inf,inf,1,1,1,1,12,18,2,2,5,1,1,1,0,0,0
1024751535,1024747313,989553489,43.781812599999995,-79.4664648,-2.2887244,-0.7556424,-5.7037625,-0.033358477,0.0802805,-1.4530041,0.06885591,-0.04408367,3.4408019,3.0461743,-0.005967029,0.0119490735,-0.037355017,0.561661,0.017037023,1.3036878,1.5427502,-0.007935383,189.69801,6.1194916,0.3279791,0.27771968,0.123595744,0.09830556,inf,inf,inf,inf,1,1,1,1,12,18,2,2,5,1,1,1,0,0,0
1024857097,1024855504,989553489,43.781812599999995,-79.4664648,-2.2866874,-0.7565377,-5.4174848,-0.033358477,0.0802805,-1.4530041,0.0990542,-0.021537125,3.444199,3.0154634,-0.005967029,0.0119490735,-0.037355017,0.29419595,-1.1823596,3.3829815,1.5313101,-0.007935383,189.69801,5.833214,0.3361908,0.2833179,0.12766752,0.10032678,inf,inf,inf,inf,1,1,1,1,12,18,2,2,5,1,1,1,0,0,0
1024947516,1024945676,989553489,43.781812599999995,-79.4664648,-2.2808998,-0.7548024,-5.1672373,-0.033358477,0.0802805,-1.4530041,0.12169694,0.011886475,3.3288164,2.8898869,-0.005967029,0.0119490735,-0.037355017,0.24568896,1.1284125,-0.8216153,1.521013,-0.007935383,189.69801,5.5829663,0.3434027,0.28777,0.13139768,0.10194681,inf,inf,inf,inf,1,1,1,1,12,18,2,2,5,1,1,1,0,0,0
1025055764,1025053880,989553489,43.781812599999995,-79.4664648,-2.2692552,-0.756982,-4.875483,-0.033358477,0.0802805,-1.4530041,0.14249465,0.027124332,3.2077165,2.7609293,-0.005967029,0.0119490735,-0.037355017,-0.03181,-0.020231547,-1.3979554,1.5132201,-0.007935383,189.69801,5.291212,0.3358338,0.28295144,0.12897328,0.10028281,inf,inf,inf,inf,1,1,1,1,12,18,2,2,5,1,1,1,0,0,0
1025156225,1025153058,989553489,43.781812599999995,-79.4664648,-2.255462,-0.7562133,-4.612204,-0.033358477,0.0802805,-1.4530041,0.15873952,0.06765598,3.0090811,2.5670166,-0.005967029,0.0119490735,-0.037355017,0.31304207,1.1412073,-2.5264332,1.5131739,-0.007935383,189.69801,5.027933,0.32792503,0.277624,0.12601633,0.098412775,inf,inf,inf,inf,1,1,1,1,12,18,2,2,5,1,1,1,0,0,0
